Event Index	UTC Timestamp	UTC Date and Time	Local Timestamp	Local Timezone	Local Date and Time	Experiment ID	Experiment Version	Tree Node Key	Repeat Key	Schedule ID	Participant Public ID	Participant Starting Group	Participant Status	Participant Completion Code	Participant External Session ID	Participant Device Type	Participant Device	Participant OS	Participant Browser	Participant Monitor Size	Participant Viewport Size	Checkpoint	Room ID	Room Order	Task Name	Task Version	Spreadsheet	Trial Number	Display	Screen	Screen ID	Screen Counter	Response Type	Response	Onset Time	Clock Time	Reaction Time	Absolute Onset Time	Absolute Clock Time	Absolute Reaction Time	Correct	Response Onset	Response Duration	Proportion	Tag	Component Name	Object Name	Object Number	Object ID	Spreadsheet: display	Spreadsheet: screen	Spreadsheet: randomise_trials	Spreadsheet: pcp	Spreadsheet: pcp_string	Spreadsheet: group_no	Spreadsheet: sample_size	Spreadsheet: set_no	Spreadsheet: spacing	Spreadsheet: estimated_value	Spreadsheet: attention_image	Spreadsheet: correct_attention_choice	Spreadsheet: correct_answer	Spreadsheet: scale_factor	Spreadsheet: refactored_correct_answer	Spreadsheet: question_counter	Spreadsheet: text	Spreadsheet: helptext	Manipulation: Spreadsheet
1	1696862910282	09/10/2023 14:48:30	1696866510282	1	09/10/2023 16:48:30	142982	9	task-i1zc		32116403	623c7c7622e9904de7912e1ce4a7797f		complete		6524205dcaa30f89a314b945	computer	Desktop or Laptop	Windows 10	Chrome 117.0.0.0	1920x1080	1920x931			0	pcp_vt	13	Spreadsheet1						5	BEGIN							0																											
2	1696862919884	09/10/2023 14:48:39	1696866519884	1	09/10/2023 16:48:39	142982	9	task-i1zc		32116403	623c7c7622e9904de7912e1ce4a7797f		complete		6524205dcaa30f89a314b945	computer	Desktop or Laptop	Windows 10	Chrome 117.0.0.0	1920x1080	1920x931			0	pcp_vt	13	Spreadsheet1	1	introduction	instructions	kzvwwb	1	continue		9626.239999999998	9609.556999999999	9626.239999999998	9626.239999999998	9609.556999999999	9626.239999999998	1	9626.239999999998	0	0		Click To Continue	Continue Button	2	object-23	introduction	instructions															"This evaluation is examining how effectively values in a series can be traced in parallel coordinates plots with varying layouts.
The next section contains 6 training questions. Your answers will not be recorded and you may take as much time as needed.
After the training section you will be given the opportunity to pause before the live questions begin.
Thanks for participating!
Please click ‘Continue’ to start."		
3	1696862937062	09/10/2023 14:48:57	1696866537062	1	09/10/2023 16:48:57	142982	9	task-i1zc		32116403	623c7c7622e9904de7912e1ce4a7797f		complete		6524205dcaa30f89a314b945	computer	Desktop or Laptop	Windows 10	Chrome 117.0.0.0	1920x1080	1920x931			0	pcp_vt	13	Spreadsheet1	1	training	pcp_vt_examples	3lq3u9	1	continue		17194.562999952315	17183.989	17194.562999952315	17194.562999952315	17183.989	17194.562999952315	1	17194.562999952315	0	0		Click To Continue	Continue Button	9	object-20	training	pcp_vt_examples		examples_pcp_vt_size_10_set_0_120.png	examples_pcp_vt_size_10_set_0_120	examples	10	0	120				19			1			
4	1696862937064	09/10/2023 14:48:57	1696866537064	1	09/10/2023 16:48:57	142982	9	task-i1zc		32116403	623c7c7622e9904de7912e1ce4a7797f		complete		6524205dcaa30f89a314b945	computer	Desktop or Laptop	Windows 10	Chrome 117.0.0.0	1920x1080	1920x931			0	pcp_vt	13	Spreadsheet1	1	training	pcp_vt_examples	3lq3u9	1	response	19	15115.218000000003	17183.989	17196.562999952315	15115.218000000003	17183.989	17196.562999952315	1	15115.218000000003	2081.3449999523127	0		Number Entry	estimated_value	8	object-19	training	pcp_vt_examples		examples_pcp_vt_size_10_set_0_120.png	examples_pcp_vt_size_10_set_0_120	examples	10	0	120				19			1			
5	1696862950928	09/10/2023 14:49:10	1696866550928	1	09/10/2023 16:49:10	142982	9	task-i1zc		32116403	623c7c7622e9904de7912e1ce4a7797f		complete		6524205dcaa30f89a314b945	computer	Desktop or Laptop	Windows 10	Chrome 117.0.0.0	1920x1080	1920x931			0	pcp_vt	13	Spreadsheet1	2	training	pcp_vt_examples	3lq3u9	1	continue		13876.67399997616	13863.893	13876.67399997616	13876.67399997616	13863.893	13876.67399997616	1	13876.67399997616	0	0		Click To Continue	Continue Button	9	object-20	training	pcp_vt_examples		examples_pcp_vt_size_20_set_0_120.png	examples_pcp_vt_size_20_set_0_120	examples	20	0	120				13			1			
6	1696862950929	09/10/2023 14:49:10	1696866550929	1	09/10/2023 16:49:10	142982	9	task-i1zc		32116403	623c7c7622e9904de7912e1ce4a7797f		complete		6524205dcaa30f89a314b945	computer	Desktop or Laptop	Windows 10	Chrome 117.0.0.0	1920x1080	1920x931			0	pcp_vt	13	Spreadsheet1	2	training	pcp_vt_examples	3lq3u9	1	response	28	10260.283	13863.893	13878.274000000001	10260.283	13863.893	13878.274000000001	1	10260.283	3617.991000000002	0		Number Entry	estimated_value	8	object-19	training	pcp_vt_examples		examples_pcp_vt_size_20_set_0_120.png	examples_pcp_vt_size_20_set_0_120	examples	20	0	120				13			1			
7	1696862963985	09/10/2023 14:49:23	1696866563985	1	09/10/2023 16:49:23	142982	9	task-i1zc		32116403	623c7c7622e9904de7912e1ce4a7797f		complete		6524205dcaa30f89a314b945	computer	Desktop or Laptop	Windows 10	Chrome 117.0.0.0	1920x1080	1920x931			0	pcp_vt	13	Spreadsheet1	3	training	pcp_vt_examples	3lq3u9	1	continue		13070.180999952318	13063.130000000005	13070.180999952318	13070.180999952318	13063.130000000005	13070.180999952318	1	13070.180999952318	0	0		Click To Continue	Continue Button	9	object-20	training	pcp_vt_examples		examples_pcp_vt_size_40_set_0_120.png	examples_pcp_vt_size_40_set_0_120	examples	40	0	120				38			1			
8	1696862963986	09/10/2023 14:49:23	1696866563986	1	09/10/2023 16:49:23	142982	9	task-i1zc		32116403	623c7c7622e9904de7912e1ce4a7797f		complete		6524205dcaa30f89a314b945	computer	Desktop or Laptop	Windows 10	Chrome 117.0.0.0	1920x1080	1920x931			0	pcp_vt	13	Spreadsheet1	3	training	pcp_vt_examples	3lq3u9	1	response	38	10760.808000000005	13063.130000000005	13071.481000023843	10760.808000000005	13063.130000000005	13071.481000023843	1	10760.808000000005	2310.6730000238385	0		Number Entry	estimated_value	8	object-19	training	pcp_vt_examples		examples_pcp_vt_size_40_set_0_120.png	examples_pcp_vt_size_40_set_0_120	examples	40	0	120				38			1			
9	1696862974770	09/10/2023 14:49:34	1696866574770	1	09/10/2023 16:49:34	142982	9	task-i1zc		32116403	623c7c7622e9904de7912e1ce4a7797f		complete		6524205dcaa30f89a314b945	computer	Desktop or Laptop	Windows 10	Chrome 117.0.0.0	1920x1080	1920x931			0	pcp_vt	13	Spreadsheet1	4	training	pcp_vt_examples	3lq3u9	1	continue		10792.250999999997	10777.499000000003	10792.250999999997	10792.250999999997	10777.499000000003	10792.250999999997	1	10792.250999999997	0	0		Click To Continue	Continue Button	9	object-20	training	pcp_vt_examples		examples_pcp_vt_size_10_set_1_120.png	examples_pcp_vt_size_10_set_1_120	examples	10	1	120				3			1			
10	1696862974772	09/10/2023 14:49:34	1696866574772	1	09/10/2023 16:49:34	142982	9	task-i1zc		32116403	623c7c7622e9904de7912e1ce4a7797f		complete		6524205dcaa30f89a314b945	computer	Desktop or Laptop	Windows 10	Chrome 117.0.0.0	1920x1080	1920x931			0	pcp_vt	13	Spreadsheet1	4	training	pcp_vt_examples	3lq3u9	1	response	4	8792.142999999996	10777.499000000003	10793.851000023838	8792.142999999996	10777.499000000003	10793.851000023838	1	8792.142999999996	2001.708000023842	0		Number Entry	estimated_value	8	object-19	training	pcp_vt_examples		examples_pcp_vt_size_10_set_1_120.png	examples_pcp_vt_size_10_set_1_120	examples	10	1	120				3			1			
11	1696862987596	09/10/2023 14:49:47	1696866587596	1	09/10/2023 16:49:47	142982	9	task-i1zc		32116403	623c7c7622e9904de7912e1ce4a7797f		complete		6524205dcaa30f89a314b945	computer	Desktop or Laptop	Windows 10	Chrome 117.0.0.0	1920x1080	1920x931			0	pcp_vt	13	Spreadsheet1	5	training	pcp_vt_examples	3lq3u9	1	continue		12840.352000023835	12829.554999999993	12840.352000023835	12840.352000023835	12829.554999999993	12840.352000023835	1	12840.352000023835	0	0		Click To Continue	Continue Button	9	object-20	training	pcp_vt_examples		examples_pcp_vt_size_20_set_1_120.png	examples_pcp_vt_size_20_set_1_120	examples	20	1	120				6			1			
12	1696862987597	09/10/2023 14:49:47	1696866587597	1	09/10/2023 16:49:47	142982	9	task-i1zc		32116403	623c7c7622e9904de7912e1ce4a7797f		complete		6524205dcaa30f89a314b945	computer	Desktop or Laptop	Windows 10	Chrome 117.0.0.0	1920x1080	1920x931			0	pcp_vt	13	Spreadsheet1	5	training	pcp_vt_examples	3lq3u9	1	response	5	10760.813999999998	12829.554999999993	12841.651999976151	10760.813999999998	12829.554999999993	12841.651999976151	1	10760.813999999998	2080.837999976153	0		Number Entry	estimated_value	8	object-19	training	pcp_vt_examples		examples_pcp_vt_size_20_set_1_120.png	examples_pcp_vt_size_20_set_1_120	examples	20	1	120				6			1			
13	1696863002888	09/10/2023 14:50:02	1696866602888	1	09/10/2023 16:50:02	142982	9	task-i1zc		32116403	623c7c7622e9904de7912e1ce4a7797f		complete		6524205dcaa30f89a314b945	computer	Desktop or Laptop	Windows 10	Chrome 117.0.0.0	1920x1080	1920x931			0	pcp_vt	13	Spreadsheet1	6	training	pcp_vt_examples	3lq3u9	1	continue		15302.996999952316	15298.703999999998	15302.996999952316	15302.996999952316	15298.703999999998	15302.996999952316	1	15302.996999952316	0	0		Click To Continue	Continue Button	9	object-20	training	pcp_vt_examples		examples_pcp_vt_size_40_set_1_120.png	examples_pcp_vt_size_40_set_1_120	examples	40	1	120				21			1			
14	1696863002889	09/10/2023 14:50:02	1696866602889	1	09/10/2023 16:50:02	142982	9	task-i1zc		32116403	623c7c7622e9904de7912e1ce4a7797f		complete		6524205dcaa30f89a314b945	computer	Desktop or Laptop	Windows 10	Chrome 117.0.0.0	1920x1080	1920x931			0	pcp_vt	13	Spreadsheet1	6	training	pcp_vt_examples	3lq3u9	1	response	22	13313.392000000007	15298.703999999998	15304.397000047684	13313.392000000007	15298.703999999998	15304.397000047684	1	13313.392000000007	1991.0050000476767	0		Number Entry	estimated_value	8	object-19	training	pcp_vt_examples		examples_pcp_vt_size_40_set_1_120.png	examples_pcp_vt_size_40_set_1_120	examples	40	1	120				21			1			
15	1696863012183	09/10/2023 14:50:12	1696866612183	1	09/10/2023 16:50:12	142982	9	task-i1zc		32116403	623c7c7622e9904de7912e1ce4a7797f		complete		6524205dcaa30f89a314b945	computer	Desktop or Laptop	Windows 10	Chrome 117.0.0.0	1920x1080	1920x931			0	pcp_vt	13	Spreadsheet1	1	begin_trial	begin	or4qll	1	continue		9299.693000047686	9292.657000000007	9299.693000047686	9299.693000047686	9292.657000000007	9299.693000047686	1	9299.693000047686	0	0		Click To Continue	Continue Button	2	object-102	begin_trial	begin															"# Start of live questions
Click 'Continue' to begin the live test. Your answers will be recorded. Please try to complete all the questions without taking a break. The test should take no more than 15 minutes to complete."		
16	1696863014147	09/10/2023 14:50:14	1696866614147	1	09/10/2023 16:50:14	142982	9	task-i1zc		32116403	623c7c7622e9904de7912e1ce4a7797f		complete		6524205dcaa30f89a314b945	computer	Desktop or Laptop	Windows 10	Chrome 117.0.0.0	1920x1080	1920x931			0	pcp_vt	13	Spreadsheet1	1	pcp_vt	fixation	gec9f5	1	continue		1968.6529999999912	1968.6529999999912	1968.6529999999912	1968.6529999999912	1968.6529999999912	1968.6529999999912	1	1968.6529999999912	0	0		Fixation Timing	Fixation	1	object-29	pcp_vt	pcp_vt_stimulus	1	live_2_pcp_vt_size_20_set_0_120.png	live_2_pcp_vt_size_20_set_0_120	2	20	0	120				46	4	86	1			
17	1696863024576	09/10/2023 14:50:24	1696866624576	1	09/10/2023 16:50:24	142982	9	task-i1zc		32116403	623c7c7622e9904de7912e1ce4a7797f		complete		6524205dcaa30f89a314b945	computer	Desktop or Laptop	Windows 10	Chrome 117.0.0.0	1920x1080	1920x931			0	pcp_vt	13	Spreadsheet1	1	pcp_vt	pcp_vt_stimulus	9rtpjb	2	continue		10431.283000023846	10427.143000000011	10431.283000023846	10431.283000023846	10427.143000000011	10431.283000023846	1	10431.283000023846	0	0		Click To Continue	submit_button	4	object-49	pcp_vt	pcp_vt_stimulus	1	live_2_pcp_vt_size_20_set_0_120.png	live_2_pcp_vt_size_20_set_0_120	2	20	0	120				46	4	86	1			
18	1696863024577	09/10/2023 14:50:24	1696866624577	1	09/10/2023 16:50:24	142982	9	task-i1zc		32116403	623c7c7622e9904de7912e1ce4a7797f		complete		6524205dcaa30f89a314b945	computer	Desktop or Laptop	Windows 10	Chrome 117.0.0.0	1920x1080	1920x931			0	pcp_vt	13	Spreadsheet1	1	pcp_vt	pcp_vt_stimulus	9rtpjb	2	response	87	9075.804000000004	10427.143000000011	10432.383000047688	9075.804000000004	10427.143000000011	10432.383000047688	1	9075.804000000004	1356.5790000476845	0	estimated_value_response	Number Entry	estimated_value_input	5	object-50	pcp_vt	pcp_vt_stimulus	1	live_2_pcp_vt_size_20_set_0_120.png	live_2_pcp_vt_size_20_set_0_120	2	20	0	120				46	4	86	1			
19	1696863026542	09/10/2023 14:50:26	1696866626542	1	09/10/2023 16:50:26	142982	9	task-i1zc		32116403	623c7c7622e9904de7912e1ce4a7797f		complete		6524205dcaa30f89a314b945	computer	Desktop or Laptop	Windows 10	Chrome 117.0.0.0	1920x1080	1920x931			0	pcp_vt	13	Spreadsheet1	2	pcp_vt	fixation	gec9f5	1	continue		1968.62999999999	1968.62999999999	1968.62999999999	1968.62999999999	1968.62999999999	1968.62999999999	1	1968.62999999999	0	0		Fixation Timing	Fixation	1	object-29	pcp_vt	pcp_vt_stimulus	1	live_2_pcp_vt_size_20_set_0_30.png	live_2_pcp_vt_size_20_set_0_30	2	20	0	30				46	1	56	1			
20	1696863035514	09/10/2023 14:50:35	1696866635514	1	09/10/2023 16:50:35	142982	9	task-i1zc		32116403	623c7c7622e9904de7912e1ce4a7797f		complete		6524205dcaa30f89a314b945	computer	Desktop or Laptop	Windows 10	Chrome 117.0.0.0	1920x1080	1920x931			0	pcp_vt	13	Spreadsheet1	2	pcp_vt	pcp_vt_stimulus	9rtpjb	2	continue		8973.309999976162	8959.010999999999	8973.309999976162	8973.309999976162	8959.010999999999	8973.309999976162	1	8973.309999976162	0	0		Click To Continue	submit_button	4	object-49	pcp_vt	pcp_vt_stimulus	1	live_2_pcp_vt_size_20_set_0_30.png	live_2_pcp_vt_size_20_set_0_30	2	20	0	30				46	1	56	1			
21	1696863035515	09/10/2023 14:50:35	1696866635515	1	09/10/2023 16:50:35	142982	9	task-i1zc		32116403	623c7c7622e9904de7912e1ce4a7797f		complete		6524205dcaa30f89a314b945	computer	Desktop or Laptop	Windows 10	Chrome 117.0.0.0	1920x1080	1920x931			0	pcp_vt	13	Spreadsheet1	2	pcp_vt	pcp_vt_stimulus	9rtpjb	2	response	57	8024.739000000001	8959.010999999999	8974.610000047687	8024.739000000001	8959.010999999999	8974.610000047687	1	8024.739000000001	949.8710000476858	0	estimated_value_response	Number Entry	estimated_value_input	5	object-50	pcp_vt	pcp_vt_stimulus	1	live_2_pcp_vt_size_20_set_0_30.png	live_2_pcp_vt_size_20_set_0_30	2	20	0	30				46	1	56	1			
22	1696863037470	09/10/2023 14:50:37	1696866637470	1	09/10/2023 16:50:37	142982	9	task-i1zc		32116403	623c7c7622e9904de7912e1ce4a7797f		complete		6524205dcaa30f89a314b945	computer	Desktop or Laptop	Windows 10	Chrome 117.0.0.0	1920x1080	1920x931			0	pcp_vt	13	Spreadsheet1	3	pcp_vt	fixation	gec9f5	1	continue		1968.6300000000047	1968.6300000000047	1968.6300000000047	1968.6300000000047	1968.6300000000047	1968.6300000000047	1	1968.6300000000047	0	0		Fixation Timing	Fixation	1	object-29	pcp_vt	pcp_vt_stimulus	1	live_1_pcp_vt_size_40_set_0_240.png	live_1_pcp_vt_size_40_set_0_240	1	40	0	240				30	8	110	1			
23	1696863056108	09/10/2023 14:50:56	1696866656108	1	09/10/2023 16:50:56	142982	9	task-i1zc		32116403	623c7c7622e9904de7912e1ce4a7797f		complete		6524205dcaa30f89a314b945	computer	Desktop or Laptop	Windows 10	Chrome 117.0.0.0	1920x1080	1920x931			0	pcp_vt	13	Spreadsheet1	3	pcp_vt	pcp_vt_stimulus	9rtpjb	2	continue		18639.769	18635.40400000001	18639.769	18639.769	18635.40400000001	18639.769	1	18639.769	0	0		Click To Continue	submit_button	4	object-49	pcp_vt	pcp_vt_stimulus	1	live_1_pcp_vt_size_40_set_0_240.png	live_1_pcp_vt_size_40_set_0_240	1	40	0	240				30	8	110	1			
24	1696863056110	09/10/2023 14:50:56	1696866656110	1	09/10/2023 16:50:56	142982	9	task-i1zc		32116403	623c7c7622e9904de7912e1ce4a7797f		complete		6524205dcaa30f89a314b945	computer	Desktop or Laptop	Windows 10	Chrome 117.0.0.0	1920x1080	1920x931			0	pcp_vt	13	Spreadsheet1	3	pcp_vt	pcp_vt_stimulus	9rtpjb	2	response	111	16399.818	18635.40400000001	18641.769	16399.818	18635.40400000001	18641.769	1	16399.818	2241.951000000001	0	estimated_value_response	Number Entry	estimated_value_input	5	object-50	pcp_vt	pcp_vt_stimulus	1	live_1_pcp_vt_size_40_set_0_240.png	live_1_pcp_vt_size_40_set_0_240	1	40	0	240				30	8	110	1			
25	1696863058073	09/10/2023 14:50:58	1696866658073	1	09/10/2023 16:50:58	142982	9	task-i1zc		32116403	623c7c7622e9904de7912e1ce4a7797f		complete		6524205dcaa30f89a314b945	computer	Desktop or Laptop	Windows 10	Chrome 117.0.0.0	1920x1080	1920x931			0	pcp_vt	13	Spreadsheet1	4	pcp_vt	fixation	gec9f5	1	continue		1968.6549999999988	1968.6549999999988	1968.6549999999988	1968.6549999999988	1968.6549999999988	1968.6549999999988	1	1968.6549999999988	0	0		Fixation Timing	Fixation	1	object-29	pcp_vt	pcp_vt_stimulus	1	live_3_pcp_vt_size_20_set_0_60.png	live_3_pcp_vt_size_20_set_0_60	3	20	0	60				35	2	55	1			
26	1696863071591	09/10/2023 14:51:11	1696866671591	1	09/10/2023 16:51:11	142982	9	task-i1zc		32116403	623c7c7622e9904de7912e1ce4a7797f		complete		6524205dcaa30f89a314b945	computer	Desktop or Laptop	Windows 10	Chrome 117.0.0.0	1920x1080	1920x931			0	pcp_vt	13	Spreadsheet1	4	pcp_vt	pcp_vt_stimulus	9rtpjb	2	continue		13519.009999952308	13513.569999999978	13519.009999952308	13519.009999952308	13513.569999999978	13519.009999952308	1	13519.009999952308	0	0		Click To Continue	submit_button	4	object-49	pcp_vt	pcp_vt_stimulus	1	live_3_pcp_vt_size_20_set_0_60.png	live_3_pcp_vt_size_20_set_0_60	3	20	0	60				35	2	55	1			
27	1696863071594	09/10/2023 14:51:11	1696866671594	1	09/10/2023 16:51:11	142982	9	task-i1zc		32116403	623c7c7622e9904de7912e1ce4a7797f		complete		6524205dcaa30f89a314b945	computer	Desktop or Laptop	Windows 10	Chrome 117.0.0.0	1920x1080	1920x931			0	pcp_vt	13	Spreadsheet1	4	pcp_vt	pcp_vt_stimulus	9rtpjb	2	response	56	12362.380000000005	13513.569999999978	13521.509999952308	12362.380000000005	13513.569999999978	13521.509999952308	1	12362.380000000005	1159.1299999523035	0	estimated_value_response	Number Entry	estimated_value_input	5	object-50	pcp_vt	pcp_vt_stimulus	1	live_3_pcp_vt_size_20_set_0_60.png	live_3_pcp_vt_size_20_set_0_60	3	20	0	60				35	2	55	1			
28	1696863073555	09/10/2023 14:51:13	1696866673555	1	09/10/2023 16:51:13	142982	9	task-i1zc		32116403	623c7c7622e9904de7912e1ce4a7797f		complete		6524205dcaa30f89a314b945	computer	Desktop or Laptop	Windows 10	Chrome 117.0.0.0	1920x1080	1920x931			0	pcp_vt	13	Spreadsheet1	5	pcp_vt	fixation	gec9f5	1	continue		1968.6320000000123	1968.6320000000123	1968.6320000000123	1968.6320000000123	1968.6320000000123	1968.6320000000123	1	1968.6320000000123	0	0		Fixation Timing	Fixation	1	object-29	pcp_vt	pcp_vt_stimulus	1	live_2_pcp_vt_size_10_set_0_120.png	live_2_pcp_vt_size_10_set_0_120	2	10	0	120				45	4	85	1			
29	1696863083231	09/10/2023 14:51:23	1696866683231	1	09/10/2023 16:51:23	142982	9	task-i1zc		32116403	623c7c7622e9904de7912e1ce4a7797f		complete		6524205dcaa30f89a314b945	computer	Desktop or Laptop	Windows 10	Chrome 117.0.0.0	1920x1080	1920x931			0	pcp_vt	13	Spreadsheet1	5	pcp_vt	pcp_vt_stimulus	9rtpjb	2	continue		9676.388999999996	9659.706000000006	9676.388999999996	9676.388999999996	9659.706000000006	9676.388999999996	1	9676.388999999996	0	0		Click To Continue	submit_button	4	object-49	pcp_vt	pcp_vt_stimulus	1	live_2_pcp_vt_size_10_set_0_120.png	live_2_pcp_vt_size_10_set_0_120	2	10	0	120				45	4	85	1			
30	1696863083233	09/10/2023 14:51:23	1696866683233	1	09/10/2023 16:51:23	142982	9	task-i1zc		32116403	623c7c7622e9904de7912e1ce4a7797f		complete		6524205dcaa30f89a314b945	computer	Desktop or Laptop	Windows 10	Chrome 117.0.0.0	1920x1080	1920x931			0	pcp_vt	13	Spreadsheet1	5	pcp_vt	pcp_vt_stimulus	9rtpjb	2	response	87	8692.05799999999	9659.706000000006	9676.388999999996	8692.05799999999	9659.706000000006	9676.388999999996	1	8692.05799999999	984.3310000000056	0	estimated_value_response	Number Entry	estimated_value_input	5	object-50	pcp_vt	pcp_vt_stimulus	1	live_2_pcp_vt_size_10_set_0_120.png	live_2_pcp_vt_size_10_set_0_120	2	10	0	120				45	4	85	1			
31	1696863085183	09/10/2023 14:51:25	1696866685183	1	09/10/2023 16:51:25	142982	9	task-i1zc		32116403	623c7c7622e9904de7912e1ce4a7797f		complete		6524205dcaa30f89a314b945	computer	Desktop or Laptop	Windows 10	Chrome 117.0.0.0	1920x1080	1920x931			0	pcp_vt	13	Spreadsheet1	6	pcp_vt	fixation	gec9f5	1	continue		1968.6259999999893	1968.6259999999893	1968.6259999999893	1968.6259999999893	1968.6259999999893	1968.6259999999893	1	1968.6259999999893	0	0		Fixation Timing	Fixation	1	object-29	pcp_vt	pcp_vt_stimulus	1	live_2_pcp_vt_size_10_set_0_480.png	live_2_pcp_vt_size_10_set_0_480	2	10	0	480				45	16	205	1			
32	1696863108747	09/10/2023 14:51:48	1696866708747	1	09/10/2023 16:51:48	142982	9	task-i1zc		32116403	623c7c7622e9904de7912e1ce4a7797f		complete		6524205dcaa30f89a314b945	computer	Desktop or Laptop	Windows 10	Chrome 117.0.0.0	1920x1080	1920x931			0	pcp_vt	13	Spreadsheet1	6	pcp_vt	pcp_vt_stimulus	9rtpjb	2	continue		23564.075999976165	23556.988000000012	23564.075999976165	23564.075999976165	23556.988000000012	23564.075999976165	1	23564.075999976165	0	0		Click To Continue	submit_button	4	object-49	pcp_vt	pcp_vt_stimulus	1	live_2_pcp_vt_size_10_set_0_480.png	live_2_pcp_vt_size_10_set_0_480	2	10	0	480				45	16	205	1			
33	1696863108748	09/10/2023 14:51:48	1696866708748	1	09/10/2023 16:51:48	142982	9	task-i1zc		32116403	623c7c7622e9904de7912e1ce4a7797f		complete		6524205dcaa30f89a314b945	computer	Desktop or Laptop	Windows 10	Chrome 117.0.0.0	1920x1080	1920x931			0	pcp_vt	13	Spreadsheet1	6	pcp_vt	pcp_vt_stimulus	9rtpjb	2	response	208	22222.320999999996	23556.988000000012	23565.575999976165	22222.320999999996	23556.988000000012	23565.575999976165	1	22222.320999999996	1343.2549999761686	0	estimated_value_response	Number Entry	estimated_value_input	5	object-50	pcp_vt	pcp_vt_stimulus	1	live_2_pcp_vt_size_10_set_0_480.png	live_2_pcp_vt_size_10_set_0_480	2	10	0	480				45	16	205	1			
34	1696863110709	09/10/2023 14:51:50	1696866710709	1	09/10/2023 16:51:50	142982	9	task-i1zc		32116403	623c7c7622e9904de7912e1ce4a7797f		complete		6524205dcaa30f89a314b945	computer	Desktop or Laptop	Windows 10	Chrome 117.0.0.0	1920x1080	1920x931			0	pcp_vt	13	Spreadsheet1	7	pcp_vt	fixation	gec9f5	1	continue		1968.6389999999956	1968.6389999999956	1968.6389999999956	1968.6389999999956	1968.6389999999956	1968.6389999999956	1	1968.6389999999956	0	0		Fixation Timing	Fixation	1	object-29	pcp_vt	pcp_vt_stimulus	1	live_3_pcp_vt_size_10_set_0_480.png	live_3_pcp_vt_size_10_set_0_480	3	10	0	480				47	16	207	1			
35	1696863120445	09/10/2023 14:52:00	1696866720445	1	09/10/2023 16:52:00	142982	9	task-i1zc		32116403	623c7c7622e9904de7912e1ce4a7797f		complete		6524205dcaa30f89a314b945	computer	Desktop or Laptop	Windows 10	Chrome 117.0.0.0	1920x1080	1920x931			0	pcp_vt	13	Spreadsheet1	7	pcp_vt	pcp_vt_stimulus	9rtpjb	2	continue		9736.048999999999	9726.446999999986	9736.048999999999	9736.048999999999	9726.446999999986	9736.048999999999	1	9736.048999999999	0	0		Click To Continue	submit_button	4	object-49	pcp_vt	pcp_vt_stimulus	1	live_3_pcp_vt_size_10_set_0_480.png	live_3_pcp_vt_size_10_set_0_480	3	10	0	480				47	16	207	1			
36	1696863120446	09/10/2023 14:52:00	1696866720446	1	09/10/2023 16:52:00	142982	9	task-i1zc		32116403	623c7c7622e9904de7912e1ce4a7797f		complete		6524205dcaa30f89a314b945	computer	Desktop or Laptop	Windows 10	Chrome 117.0.0.0	1920x1080	1920x931			0	pcp_vt	13	Spreadsheet1	7	pcp_vt	pcp_vt_stimulus	9rtpjb	2	response	208	8525.431000000011	9726.446999999986	9737.649000023841	8525.431000000011	9726.446999999986	9737.649000023841	1	8525.431000000011	1212.2180000238295	0	estimated_value_response	Number Entry	estimated_value_input	5	object-50	pcp_vt	pcp_vt_stimulus	1	live_3_pcp_vt_size_10_set_0_480.png	live_3_pcp_vt_size_10_set_0_480	3	10	0	480				47	16	207	1			
37	1696863122404	09/10/2023 14:52:02	1696866722404	1	09/10/2023 16:52:02	142982	9	task-i1zc		32116403	623c7c7622e9904de7912e1ce4a7797f		complete		6524205dcaa30f89a314b945	computer	Desktop or Laptop	Windows 10	Chrome 117.0.0.0	1920x1080	1920x931			0	pcp_vt	13	Spreadsheet1	8	pcp_vt	fixation	gec9f5	1	continue		1968.6630000000005	1968.6630000000005	1968.6630000000005	1968.6630000000005	1968.6630000000005	1968.6630000000005	1	1968.6630000000005	0	0		Fixation Timing	Fixation	1	object-29	pcp_vt	pcp_vt_stimulus	1	live_3_pcp_vt_size_20_set_0_30.png	live_3_pcp_vt_size_20_set_0_30	3	20	0	30				35	1	45	1			
38	1696863137840	09/10/2023 14:52:17	1696866737840	1	09/10/2023 16:52:17	142982	9	task-i1zc		32116403	623c7c7622e9904de7912e1ce4a7797f		complete		6524205dcaa30f89a314b945	computer	Desktop or Laptop	Windows 10	Chrome 117.0.0.0	1920x1080	1920x931			0	pcp_vt	13	Spreadsheet1	8	pcp_vt	pcp_vt_stimulus	9rtpjb	2	continue		15435.838999976171	15432.143000000011	15435.838999976171	15435.838999976171	15432.143000000011	15435.838999976171	1	15435.838999976171	0	0		Click To Continue	submit_button	4	object-49	pcp_vt	pcp_vt_stimulus	1	live_3_pcp_vt_size_20_set_0_30.png	live_3_pcp_vt_size_20_set_0_30	3	20	0	30				35	1	45	1			
39	1696863137841	09/10/2023 14:52:17	1696866737841	1	09/10/2023 16:52:17	142982	9	task-i1zc		32116403	623c7c7622e9904de7912e1ce4a7797f		complete		6524205dcaa30f89a314b945	computer	Desktop or Laptop	Windows 10	Chrome 117.0.0.0	1920x1080	1920x931			0	pcp_vt	13	Spreadsheet1	8	pcp_vt	pcp_vt_stimulus	9rtpjb	2	response	10	14297.700000000012	15432.143000000011	15437.338999976171	14297.700000000012	15432.143000000011	15437.338999976171	1	14297.700000000012	1139.6389999761595	0	estimated_value_response	Number Entry	estimated_value_input	5	object-50	pcp_vt	pcp_vt_stimulus	1	live_3_pcp_vt_size_20_set_0_30.png	live_3_pcp_vt_size_20_set_0_30	3	20	0	30				35	1	45	1			
40	1696863139805	09/10/2023 14:52:19	1696866739805	1	09/10/2023 16:52:19	142982	9	task-i1zc		32116403	623c7c7622e9904de7912e1ce4a7797f		complete		6524205dcaa30f89a314b945	computer	Desktop or Laptop	Windows 10	Chrome 117.0.0.0	1920x1080	1920x931			0	pcp_vt	13	Spreadsheet1	9	pcp_vt	fixation	gec9f5	1	continue		1968.6169999999984	1968.6169999999984	1968.6169999999984	1968.6169999999984	1968.6169999999984	1968.6169999999984	1	1968.6169999999984	0	0		Fixation Timing	Fixation	1	object-29	pcp_vt	pcp_vt_stimulus	1	live_2_pcp_vt_size_40_set_0_120.png	live_2_pcp_vt_size_40_set_0_120	2	40	0	120				15	4	55	1			
41	1696863153112	09/10/2023 14:52:33	1696866753112	1	09/10/2023 16:52:33	142982	9	task-i1zc		32116403	623c7c7622e9904de7912e1ce4a7797f		complete		6524205dcaa30f89a314b945	computer	Desktop or Laptop	Windows 10	Chrome 117.0.0.0	1920x1080	1920x931			0	pcp_vt	13	Spreadsheet1	9	pcp_vt	pcp_vt_stimulus	9rtpjb	2	continue		13307.379000047687	13296.727000000014	13307.379000047687	13307.379000047687	13296.727000000014	13307.379000047687	1	13307.379000047687	0	0		Click To Continue	submit_button	4	object-49	pcp_vt	pcp_vt_stimulus	1	live_2_pcp_vt_size_40_set_0_120.png	live_2_pcp_vt_size_40_set_0_120	2	40	0	120				15	4	55	1			
42	1696863153114	09/10/2023 14:52:33	1696866753114	1	09/10/2023 16:52:33	142982	9	task-i1zc		32116403	623c7c7622e9904de7912e1ce4a7797f		complete		6524205dcaa30f89a314b945	computer	Desktop or Laptop	Windows 10	Chrome 117.0.0.0	1920x1080	1920x931			0	pcp_vt	13	Spreadsheet1	9	pcp_vt	pcp_vt_stimulus	9rtpjb	2	response	62	12178.953999999998	13296.727000000014	13308.97899995232	12178.953999999998	13296.727000000014	13308.97899995232	1	12178.953999999998	1130.024999952322	0	estimated_value_response	Number Entry	estimated_value_input	5	object-50	pcp_vt	pcp_vt_stimulus	1	live_2_pcp_vt_size_40_set_0_120.png	live_2_pcp_vt_size_40_set_0_120	2	40	0	120				15	4	55	1			
43	1696863155072	09/10/2023 14:52:35	1696866755072	1	09/10/2023 16:52:35	142982	9	task-i1zc		32116403	623c7c7622e9904de7912e1ce4a7797f		complete		6524205dcaa30f89a314b945	computer	Desktop or Laptop	Windows 10	Chrome 117.0.0.0	1920x1080	1920x931			0	pcp_vt	13	Spreadsheet1	10	pcp_vt	fixation	gec9f5	1	continue		1968.6359999999986	1968.6359999999986	1968.6359999999986	1968.6359999999986	1968.6359999999986	1968.6359999999986	1	1968.6359999999986	0	0		Fixation Timing	Fixation	1	object-29	pcp_vt	pcp_vt_stimulus	1	live_3_pcp_vt_size_10_set_0_240.png	live_3_pcp_vt_size_10_set_0_240	3	10	0	240				47	8	127	1			
44	1696863166638	09/10/2023 14:52:46	1696866766638	1	09/10/2023 16:52:46	142982	9	task-i1zc		32116403	623c7c7622e9904de7912e1ce4a7797f		complete		6524205dcaa30f89a314b945	computer	Desktop or Laptop	Windows 10	Chrome 117.0.0.0	1920x1080	1920x931			0	pcp_vt	13	Spreadsheet1	10	pcp_vt	pcp_vt_stimulus	9rtpjb	2	response		11568.21599997615	11561.641999999993	11568.21599997615	11568.21599997615	11561.641999999993	11568.21599997615	1	11568.21599997615	0	0		Keyboard Response	estimated_value_input	5	object-50	pcp_vt	pcp_vt_stimulus	1	live_3_pcp_vt_size_10_set_0_240.png	live_3_pcp_vt_size_10_set_0_240	3	10	0	240				47	8	127	1			
45	1696863166639	09/10/2023 14:52:46	1696866766639	1	09/10/2023 16:52:46	142982	9	task-i1zc		32116403	623c7c7622e9904de7912e1ce4a7797f		complete		6524205dcaa30f89a314b945	computer	Desktop or Laptop	Windows 10	Chrome 117.0.0.0	1920x1080	1920x931			0	pcp_vt	13	Spreadsheet1	10	pcp_vt	pcp_vt_stimulus	9rtpjb	2	response	128	9426.145999999979	11561.641999999993	11569.516000047675	9426.145999999979	11561.641999999993	11569.516000047675	1	9426.145999999979	2143.3700000476965	0	estimated_value_response	Number Entry	estimated_value_input	5	object-50	pcp_vt	pcp_vt_stimulus	1	live_3_pcp_vt_size_10_set_0_240.png	live_3_pcp_vt_size_10_set_0_240	3	10	0	240				47	8	127	1			
46	1696863168601	09/10/2023 14:52:48	1696866768601	1	09/10/2023 16:52:48	142982	9	task-i1zc		32116403	623c7c7622e9904de7912e1ce4a7797f		complete		6524205dcaa30f89a314b945	computer	Desktop or Laptop	Windows 10	Chrome 117.0.0.0	1920x1080	1920x931			0	pcp_vt	13	Spreadsheet1	11	pcp_vt	fixation	gec9f5	1	continue		1968.616000000009	1968.616000000009	1968.616000000009	1968.616000000009	1968.616000000009	1968.616000000009	1	1968.616000000009	0	0		Fixation Timing	Fixation	1	object-29	pcp_vt	pcp_vt_stimulus	1	live_1_pcp_vt_size_10_set_0_30.png	live_1_pcp_vt_size_10_set_0_30	1	10	0	30				40	1	50	1			
47	1696863184124	09/10/2023 14:53:04	1696866784124	1	09/10/2023 16:53:04	142982	9	task-i1zc		32116403	623c7c7622e9904de7912e1ce4a7797f		complete		6524205dcaa30f89a314b945	computer	Desktop or Laptop	Windows 10	Chrome 117.0.0.0	1920x1080	1920x931			0	pcp_vt	13	Spreadsheet1	11	pcp_vt	pcp_vt_stimulus	9rtpjb	2	continue		15523.857999952306	15515.597999999969	15523.857999952306	15523.857999952306	15515.597999999969	15523.857999952306	1	15523.857999952306	0	0		Click To Continue	submit_button	4	object-49	pcp_vt	pcp_vt_stimulus	1	live_1_pcp_vt_size_10_set_0_30.png	live_1_pcp_vt_size_10_set_0_30	1	10	0	30				40	1	50	1			
48	1696863184126	09/10/2023 14:53:04	1696866784126	1	09/10/2023 16:53:04	142982	9	task-i1zc		32116403	623c7c7622e9904de7912e1ce4a7797f		complete		6524205dcaa30f89a314b945	computer	Desktop or Laptop	Windows 10	Chrome 117.0.0.0	1920x1080	1920x931			0	pcp_vt	13	Spreadsheet1	11	pcp_vt	pcp_vt_stimulus	9rtpjb	2	response	50	12712.785000000003	15515.597999999969	15525.957999976148	12712.785000000003	15515.597999999969	15525.957999976148	1	12712.785000000003	2813.1729999761446	0	estimated_value_response	Number Entry	estimated_value_input	5	object-50	pcp_vt	pcp_vt_stimulus	1	live_1_pcp_vt_size_10_set_0_30.png	live_1_pcp_vt_size_10_set_0_30	1	10	0	30				40	1	50	1			
49	1696863186085	09/10/2023 14:53:06	1696866786085	1	09/10/2023 16:53:06	142982	9	task-i1zc		32116403	623c7c7622e9904de7912e1ce4a7797f		complete		6524205dcaa30f89a314b945	computer	Desktop or Laptop	Windows 10	Chrome 117.0.0.0	1920x1080	1920x931			0	pcp_vt	13	Spreadsheet1	12	pcp_vt	fixation	gec9f5	1	continue		1968.630999999994	1968.630999999994	1968.630999999994	1968.630999999994	1968.630999999994	1968.630999999994	1	1968.630999999994	0	0		Fixation Timing	Fixation	1	object-29	pcp_vt	pcp_vt_stimulus	1	live_3_pcp_vt_size_40_set_0_480.png	live_3_pcp_vt_size_40_set_0_480	3	40	0	480				21	16	181	1			
50	1696863202663	09/10/2023 14:53:22	1696866802663	1	09/10/2023 16:53:22	142982	9	task-i1zc		32116403	623c7c7622e9904de7912e1ce4a7797f		complete		6524205dcaa30f89a314b945	computer	Desktop or Laptop	Windows 10	Chrome 117.0.0.0	1920x1080	1920x931			0	pcp_vt	13	Spreadsheet1	12	pcp_vt	pcp_vt_stimulus	9rtpjb	2	continue		16578.42900002387	16566.659000000043	16578.42900002387	16578.42900002387	16566.659000000043	16578.42900002387	1	16578.42900002387	0	0		Click To Continue	submit_button	4	object-49	pcp_vt	pcp_vt_stimulus	1	live_3_pcp_vt_size_40_set_0_480.png	live_3_pcp_vt_size_40_set_0_480	3	40	0	480				21	16	181	1			
51	1696863202664	09/10/2023 14:53:22	1696866802664	1	09/10/2023 16:53:22	142982	9	task-i1zc		32116403	623c7c7622e9904de7912e1ce4a7797f		complete		6524205dcaa30f89a314b945	computer	Desktop or Laptop	Windows 10	Chrome 117.0.0.0	1920x1080	1920x931			0	pcp_vt	13	Spreadsheet1	12	pcp_vt	pcp_vt_stimulus	9rtpjb	2	response	182	15415.543000000005	16566.659000000043	16580.02900004771	15415.543000000005	16566.659000000043	16580.02900004771	1	15415.543000000005	1164.4860000477056	0	estimated_value_response	Number Entry	estimated_value_input	5	object-50	pcp_vt	pcp_vt_stimulus	1	live_3_pcp_vt_size_40_set_0_480.png	live_3_pcp_vt_size_40_set_0_480	3	40	0	480				21	16	181	1			
52	1696863204620	09/10/2023 14:53:24	1696866804620	1	09/10/2023 16:53:24	142982	9	task-i1zc		32116403	623c7c7622e9904de7912e1ce4a7797f		complete		6524205dcaa30f89a314b945	computer	Desktop or Laptop	Windows 10	Chrome 117.0.0.0	1920x1080	1920x931			0	pcp_vt	13	Spreadsheet1	13	pcp_vt	fixation	gec9f5	1	continue		1968.61599999998	1968.61599999998	1968.61599999998	1968.61599999998	1968.61599999998	1968.61599999998	1	1968.61599999998	0	0		Fixation Timing	Fixation	1	object-29	pcp_vt	pcp_vt_stimulus	1	live_2_pcp_vt_size_20_set_0_240.png	live_2_pcp_vt_size_20_set_0_240	2	20	0	240				46	8	126	1			
53	1696863214592	09/10/2023 14:53:34	1696866814592	1	09/10/2023 16:53:34	142982	9	task-i1zc		32116403	623c7c7622e9904de7912e1ce4a7797f		complete		6524205dcaa30f89a314b945	computer	Desktop or Laptop	Windows 10	Chrome 117.0.0.0	1920x1080	1920x931			0	pcp_vt	13	Spreadsheet1	13	pcp_vt	pcp_vt_stimulus	9rtpjb	2	continue		9972.154000023846	9960.068000000028	9972.154000023846	9972.154000023846	9960.068000000028	9972.154000023846	1	9972.154000023846	0	0		Click To Continue	submit_button	4	object-49	pcp_vt	pcp_vt_stimulus	1	live_2_pcp_vt_size_20_set_0_240.png	live_2_pcp_vt_size_20_set_0_240	2	20	0	240				46	8	126	1			
54	1696863214593	09/10/2023 14:53:34	1696866814593	1	09/10/2023 16:53:34	142982	9	task-i1zc		32116403	623c7c7622e9904de7912e1ce4a7797f		complete		6524205dcaa30f89a314b945	computer	Desktop or Laptop	Windows 10	Chrome 117.0.0.0	1920x1080	1920x931			0	pcp_vt	13	Spreadsheet1	13	pcp_vt	pcp_vt_stimulus	9rtpjb	2	response	127	8625.373000000021	9960.068000000028	9973.554000000004	8625.373000000021	9960.068000000028	9973.554000000004	1	8625.373000000021	1348.1809999999823	0	estimated_value_response	Number Entry	estimated_value_input	5	object-50	pcp_vt	pcp_vt_stimulus	1	live_2_pcp_vt_size_20_set_0_240.png	live_2_pcp_vt_size_20_set_0_240	2	20	0	240				46	8	126	1			
55	1696863216549	09/10/2023 14:53:36	1696866816549	1	09/10/2023 16:53:36	142982	9	task-i1zc		32116403	623c7c7622e9904de7912e1ce4a7797f		complete		6524205dcaa30f89a314b945	computer	Desktop or Laptop	Windows 10	Chrome 117.0.0.0	1920x1080	1920x931			0	pcp_vt	13	Spreadsheet1	14	pcp_vt	fixation	gec9f5	1	continue		1968.5969999999506	1968.5969999999506	1968.5969999999506	1968.5969999999506	1968.5969999999506	1968.5969999999506	1	1968.5969999999506	0	0		Fixation Timing	Fixation	1	object-29	pcp_vt	pcp_vt_stimulus	1	live_3_pcp_vt_size_10_set_0_60.png	live_3_pcp_vt_size_10_set_0_60	3	10	0	60				47	2	67	1			
56	1696863223697	09/10/2023 14:53:43	1696866823697	1	09/10/2023 16:53:43	142982	9	task-i1zc		32116403	623c7c7622e9904de7912e1ce4a7797f		complete		6524205dcaa30f89a314b945	computer	Desktop or Laptop	Windows 10	Chrome 117.0.0.0	1920x1080	1920x931			0	pcp_vt	13	Spreadsheet1	14	pcp_vt	pcp_vt_stimulus	9rtpjb	2	continue		7148.389000000025	7140.563000000024	7148.389000000025	7148.389000000025	7140.563000000024	7148.389000000025	1	7148.389000000025	0	0		Click To Continue	submit_button	4	object-49	pcp_vt	pcp_vt_stimulus	1	live_3_pcp_vt_size_10_set_0_60.png	live_3_pcp_vt_size_10_set_0_60	3	10	0	60				47	2	67	1			
57	1696863223697	09/10/2023 14:53:43	1696866823697	1	09/10/2023 16:53:43	142982	9	task-i1zc		32116403	623c7c7622e9904de7912e1ce4a7797f		complete		6524205dcaa30f89a314b945	computer	Desktop or Laptop	Windows 10	Chrome 117.0.0.0	1920x1080	1920x931			0	pcp_vt	13	Spreadsheet1	14	pcp_vt	pcp_vt_stimulus	9rtpjb	2	response	68	6056.10400000005	7140.563000000024	7148.788999976183	6056.10400000005	7140.563000000024	7148.788999976183	1	6056.10400000005	1092.6849999761325	0	estimated_value_response	Number Entry	estimated_value_input	5	object-50	pcp_vt	pcp_vt_stimulus	1	live_3_pcp_vt_size_10_set_0_60.png	live_3_pcp_vt_size_10_set_0_60	3	10	0	60				47	2	67	1			
58	1696863225658	09/10/2023 14:53:45	1696866825658	1	09/10/2023 16:53:45	142982	9	task-i1zc		32116403	623c7c7622e9904de7912e1ce4a7797f		complete		6524205dcaa30f89a314b945	computer	Desktop or Laptop	Windows 10	Chrome 117.0.0.0	1920x1080	1920x931			0	pcp_vt	13	Spreadsheet1	15	pcp_vt	fixation	gec9f5	1	continue		1968.570000000007	1968.570000000007	1968.570000000007	1968.570000000007	1968.570000000007	1968.570000000007	1	1968.570000000007	0	0		Fixation Timing	Fixation	1	object-29	pcp_vt	pcp_vt_stimulus	1	live_2_pcp_vt_size_40_set_0_480.png	live_2_pcp_vt_size_40_set_0_480	2	40	0	480				15	16	175	1			
59	1696863242740	09/10/2023 14:54:02	1696866842740	1	09/10/2023 16:54:02	142982	9	task-i1zc		32116403	623c7c7622e9904de7912e1ce4a7797f		complete		6524205dcaa30f89a314b945	computer	Desktop or Laptop	Windows 10	Chrome 117.0.0.0	1920x1080	1920x931			0	pcp_vt	13	Spreadsheet1	15	pcp_vt	pcp_vt_stimulus	9rtpjb	2	continue		17082.05599995231	17067.168999999994	17082.05599995231	17082.05599995231	17067.168999999994	17082.05599995231	1	17082.05599995231	0	0		Click To Continue	submit_button	4	object-49	pcp_vt	pcp_vt_stimulus	1	live_2_pcp_vt_size_40_set_0_480.png	live_2_pcp_vt_size_40_set_0_480	2	40	0	480				15	16	175	1			
60	1696863242741	09/10/2023 14:54:02	1696866842741	1	09/10/2023 16:54:02	142982	9	task-i1zc		32116403	623c7c7622e9904de7912e1ce4a7797f		complete		6524205dcaa30f89a314b945	computer	Desktop or Laptop	Windows 10	Chrome 117.0.0.0	1920x1080	1920x931			0	pcp_vt	13	Spreadsheet1	15	pcp_vt	pcp_vt_stimulus	9rtpjb	2	response	201	13230.026000000013	17067.168999999994	17083.05599995231	13230.026000000013	17067.168999999994	17083.05599995231	1	13230.026000000013	3853.0299999522977	0	estimated_value_response	Number Entry	estimated_value_input	5	object-50	pcp_vt	pcp_vt_stimulus	1	live_2_pcp_vt_size_40_set_0_480.png	live_2_pcp_vt_size_40_set_0_480	2	40	0	480				15	16	175	1			
61	1696863244694	09/10/2023 14:54:04	1696866844694	1	09/10/2023 16:54:04	142982	9	task-i1zc		32116403	623c7c7622e9904de7912e1ce4a7797f		complete		6524205dcaa30f89a314b945	computer	Desktop or Laptop	Windows 10	Chrome 117.0.0.0	1920x1080	1920x931			0	pcp_vt	13	Spreadsheet1	1	attention_parallel	fixation	pd8dqw	1	continue		1968.6439999999711	1968.6439999999711	1968.6439999999711	1968.6439999999711	1968.6439999999711	1968.6439999999711	1	1968.6439999999711	0	0		Fixation Timing	Fixation	1	object-45	attention_parallel	attention_parallel_select									parallel_lines_horiz_numbered.png	A							
62	1696863247869	09/10/2023 14:54:07	1696866847869	1	09/10/2023 16:54:07	142982	9	task-i1zc		32116403	623c7c7622e9904de7912e1ce4a7797f		complete		6524205dcaa30f89a314b945	computer	Desktop or Laptop	Windows 10	Chrome 117.0.0.0	1920x1080	1920x931			0	pcp_vt	13	Spreadsheet1	1	attention_parallel	attention_parallel_select	tfxd8v	2	continue		3175.2429999523447	3169.8800000000047	3175.2429999523447	3175.2429999523447	3169.8800000000047	3175.2429999523447	1	3175.2429999523447	0	0		Click To Continue	button_A	2	object-67	attention_parallel	attention_parallel_select									parallel_lines_horiz_numbered.png	A							
63	1696863249833	09/10/2023 14:54:09	1696866849833	1	09/10/2023 16:54:09	142982	9	task-i1zc		32116403	623c7c7622e9904de7912e1ce4a7797f		complete		6524205dcaa30f89a314b945	computer	Desktop or Laptop	Windows 10	Chrome 117.0.0.0	1920x1080	1920x931			0	pcp_vt	13	Spreadsheet1	16	pcp_vt	fixation	gec9f5	1	continue		1968.6359999999986	1968.6359999999986	1968.6359999999986	1968.6359999999986	1968.6359999999986	1968.6359999999986	1	1968.6359999999986	0	0		Fixation Timing	Fixation	1	object-29	pcp_vt	pcp_vt_stimulus	1	live_3_pcp_vt_size_10_set_0_120.png	live_3_pcp_vt_size_10_set_0_120	3	10	0	120				47	4	87	1			
64	1696863258861	09/10/2023 14:54:18	1696866858861	1	09/10/2023 16:54:18	142982	9	task-i1zc		32116403	623c7c7622e9904de7912e1ce4a7797f		complete		6524205dcaa30f89a314b945	computer	Desktop or Laptop	Windows 10	Chrome 117.0.0.0	1920x1080	1920x931			0	pcp_vt	13	Spreadsheet1	16	pcp_vt	pcp_vt_stimulus	9rtpjb	2	continue		9029.527000023867	9025.771000000008	9029.527000023867	9029.527000023867	9025.771000000008	9029.527000023867	1	9029.527000023867	0	0		Click To Continue	submit_button	4	object-49	pcp_vt	pcp_vt_stimulus	1	live_3_pcp_vt_size_10_set_0_120.png	live_3_pcp_vt_size_10_set_0_120	3	10	0	120				47	4	87	1			
65	1696863258863	09/10/2023 14:54:18	1696866858863	1	09/10/2023 16:54:18	142982	9	task-i1zc		32116403	623c7c7622e9904de7912e1ce4a7797f		complete		6524205dcaa30f89a314b945	computer	Desktop or Laptop	Windows 10	Chrome 117.0.0.0	1920x1080	1920x931			0	pcp_vt	13	Spreadsheet1	16	pcp_vt	pcp_vt_stimulus	9rtpjb	2	response	88	6489.840000000026	9025.771000000008	9031.326999976183	6489.840000000026	9025.771000000008	9031.326999976183	1	6489.840000000026	2541.4869999761577	0	estimated_value_response	Number Entry	estimated_value_input	5	object-50	pcp_vt	pcp_vt_stimulus	1	live_3_pcp_vt_size_10_set_0_120.png	live_3_pcp_vt_size_10_set_0_120	3	10	0	120				47	4	87	1			
66	1696863260828	09/10/2023 14:54:20	1696866860828	1	09/10/2023 16:54:20	142982	9	task-i1zc		32116403	623c7c7622e9904de7912e1ce4a7797f		complete		6524205dcaa30f89a314b945	computer	Desktop or Laptop	Windows 10	Chrome 117.0.0.0	1920x1080	1920x931			0	pcp_vt	13	Spreadsheet1	17	pcp_vt	fixation	gec9f5	1	continue		1968.7390000000014	1968.7390000000014	1968.7390000000014	1968.7390000000014	1968.7390000000014	1968.7390000000014	1	1968.7390000000014	0	0		Fixation Timing	Fixation	1	object-29	pcp_vt	pcp_vt_stimulus	1	live_3_pcp_vt_size_40_set_0_30.png	live_3_pcp_vt_size_40_set_0_30	3	40	0	30				21	1	31	1			
67	1696863273703	09/10/2023 14:54:33	1696866873703	1	09/10/2023 16:54:33	142982	9	task-i1zc		32116403	623c7c7622e9904de7912e1ce4a7797f		complete		6524205dcaa30f89a314b945	computer	Desktop or Laptop	Windows 10	Chrome 117.0.0.0	1920x1080	1920x931			0	pcp_vt	13	Spreadsheet1	17	pcp_vt	pcp_vt_stimulus	9rtpjb	2	continue		12876.6170000477	12862.795000000042	12876.6170000477	12876.6170000477	12862.795000000042	12876.6170000477	1	12876.6170000477	0	0		Click To Continue	submit_button	4	object-49	pcp_vt	pcp_vt_stimulus	1	live_3_pcp_vt_size_40_set_0_30.png	live_3_pcp_vt_size_40_set_0_30	3	40	0	30				21	1	31	1			
68	1696863273704	09/10/2023 14:54:33	1696866873704	1	09/10/2023 16:54:33	142982	9	task-i1zc		32116403	623c7c7622e9904de7912e1ce4a7797f		complete		6524205dcaa30f89a314b945	computer	Desktop or Laptop	Windows 10	Chrome 117.0.0.0	1920x1080	1920x931			0	pcp_vt	13	Spreadsheet1	17	pcp_vt	pcp_vt_stimulus	9rtpjb	2	response	32	12011.93300000002	12862.795000000042	12877.816999976174	12011.93300000002	12862.795000000042	12877.816999976174	1	12011.93300000002	865.8839999761549	0	estimated_value_response	Number Entry	estimated_value_input	5	object-50	pcp_vt	pcp_vt_stimulus	1	live_3_pcp_vt_size_40_set_0_30.png	live_3_pcp_vt_size_40_set_0_30	3	40	0	30				21	1	31	1			
69	1696863275659	09/10/2023 14:54:35	1696866875659	1	09/10/2023 16:54:35	142982	9	task-i1zc		32116403	623c7c7622e9904de7912e1ce4a7797f		complete		6524205dcaa30f89a314b945	computer	Desktop or Laptop	Windows 10	Chrome 117.0.0.0	1920x1080	1920x931			0	pcp_vt	13	Spreadsheet1	18	pcp_vt	fixation	gec9f5	1	continue		1968.6199999999953	1968.6199999999953	1968.6199999999953	1968.6199999999953	1968.6199999999953	1968.6199999999953	1	1968.6199999999953	0	0		Fixation Timing	Fixation	1	object-29	pcp_vt	pcp_vt_stimulus	1	live_1_pcp_vt_size_40_set_0_480.png	live_1_pcp_vt_size_40_set_0_480	1	40	0	480				30	16	190	1			
70	1696863281985	09/10/2023 14:54:41	1696866881985	1	09/10/2023 16:54:41	142982	9	task-i1zc		32116403	623c7c7622e9904de7912e1ce4a7797f		complete		6524205dcaa30f89a314b945	computer	Desktop or Laptop	Windows 10	Chrome 117.0.0.0	1920x1080	1920x931			0	pcp_vt	13	Spreadsheet1	18	pcp_vt	pcp_vt_stimulus	9rtpjb	2	continue		6326.801999952295	6323.039999999979	6326.801999952295	6326.801999952295	6323.039999999979	6326.801999952295	1	6326.801999952295	0	0		Click To Continue	submit_button	4	object-49	pcp_vt	pcp_vt_stimulus	1	live_1_pcp_vt_size_40_set_0_480.png	live_1_pcp_vt_size_40_set_0_480	1	40	0	480				30	16	190	1			
71	1696863281985	09/10/2023 14:54:41	1696866881985	1	09/10/2023 16:54:41	142982	9	task-i1zc		32116403	623c7c7622e9904de7912e1ce4a7797f		complete		6524205dcaa30f89a314b945	computer	Desktop or Laptop	Windows 10	Chrome 117.0.0.0	1920x1080	1920x931			0	pcp_vt	13	Spreadsheet1	18	pcp_vt	pcp_vt_stimulus	9rtpjb	2	response	175	5205.24099999998	6323.039999999979	6327.10200002382	5205.24099999998	6323.039999999979	6327.10200002382	1	5205.24099999998	1121.8610000238405	0	estimated_value_response	Number Entry	estimated_value_input	5	object-50	pcp_vt	pcp_vt_stimulus	1	live_1_pcp_vt_size_40_set_0_480.png	live_1_pcp_vt_size_40_set_0_480	1	40	0	480				30	16	190	1			
72	1696863283950	09/10/2023 14:54:43	1696866883950	1	09/10/2023 16:54:43	142982	9	task-i1zc		32116403	623c7c7622e9904de7912e1ce4a7797f		complete		6524205dcaa30f89a314b945	computer	Desktop or Laptop	Windows 10	Chrome 117.0.0.0	1920x1080	1920x931			0	pcp_vt	13	Spreadsheet1	19	pcp_vt	fixation	gec9f5	1	continue		1968.6170000000275	1968.6170000000275	1968.6170000000275	1968.6170000000275	1968.6170000000275	1968.6170000000275	1	1968.6170000000275	0	0		Fixation Timing	Fixation	1	object-29	pcp_vt	pcp_vt_stimulus	1	live_1_pcp_vt_size_20_set_0_240.png	live_1_pcp_vt_size_20_set_0_240	1	20	0	240				2	8	82	1			
73	1696863296099	09/10/2023 14:54:56	1696866896099	1	09/10/2023 16:54:56	142982	9	task-i1zc		32116403	623c7c7622e9904de7912e1ce4a7797f		complete		6524205dcaa30f89a314b945	computer	Desktop or Laptop	Windows 10	Chrome 117.0.0.0	1920x1080	1920x931			0	pcp_vt	13	Spreadsheet1	19	pcp_vt	pcp_vt_stimulus	9rtpjb	2	continue		12149.844999999972	12145.561999999976	12149.844999999972	12149.844999999972	12145.561999999976	12149.844999999972	1	12149.844999999972	0	0		Click To Continue	submit_button	4	object-49	pcp_vt	pcp_vt_stimulus	1	live_1_pcp_vt_size_20_set_0_240.png	live_1_pcp_vt_size_20_set_0_240	1	20	0	240				2	8	82	1			
74	1696863296100	09/10/2023 14:54:56	1696866896100	1	09/10/2023 16:54:56	142982	9	task-i1zc		32116403	623c7c7622e9904de7912e1ce4a7797f		complete		6524205dcaa30f89a314b945	computer	Desktop or Laptop	Windows 10	Chrome 117.0.0.0	1920x1080	1920x931			0	pcp_vt	13	Spreadsheet1	19	pcp_vt	pcp_vt_stimulus	9rtpjb	2	response	95	11194.588999999978	12145.561999999976	12150.74499997613	11194.588999999978	12145.561999999976	12150.74499997613	1	11194.588999999978	956.1559999761521	0	estimated_value_response	Number Entry	estimated_value_input	5	object-50	pcp_vt	pcp_vt_stimulus	1	live_1_pcp_vt_size_20_set_0_240.png	live_1_pcp_vt_size_20_set_0_240	1	20	0	240				2	8	82	1			
75	1696863298065	09/10/2023 14:54:58	1696866898065	1	09/10/2023 16:54:58	142982	9	task-i1zc		32116403	623c7c7622e9904de7912e1ce4a7797f		complete		6524205dcaa30f89a314b945	computer	Desktop or Laptop	Windows 10	Chrome 117.0.0.0	1920x1080	1920x931			0	pcp_vt	13	Spreadsheet1	20	pcp_vt	fixation	gec9f5	1	continue		1968.6359999999986	1968.6359999999986	1968.6359999999986	1968.6359999999986	1968.6359999999986	1968.6359999999986	1	1968.6359999999986	0	0		Fixation Timing	Fixation	1	object-29	pcp_vt	pcp_vt_stimulus	1	live_1_pcp_vt_size_20_set_0_30.png	live_1_pcp_vt_size_20_set_0_30	1	20	0	30				2	1	12	1			
76	1696863307548	09/10/2023 14:55:07	1696866907548	1	09/10/2023 16:55:07	142982	9	task-i1zc		32116403	623c7c7622e9904de7912e1ce4a7797f		complete		6524205dcaa30f89a314b945	computer	Desktop or Laptop	Windows 10	Chrome 117.0.0.0	1920x1080	1920x931			0	pcp_vt	13	Spreadsheet1	20	pcp_vt	pcp_vt_stimulus	9rtpjb	2	continue		9484.546999976155	9476.197999999975	9484.546999976155	9484.546999976155	9476.197999999975	9484.546999976155	1	9484.546999976155	0	0		Click To Continue	submit_button	4	object-49	pcp_vt	pcp_vt_stimulus	1	live_1_pcp_vt_size_20_set_0_30.png	live_1_pcp_vt_size_20_set_0_30	1	20	0	30				2	1	12	1			
77	1696863307550	09/10/2023 14:55:07	1696866907550	1	09/10/2023 16:55:07	142982	9	task-i1zc		32116403	623c7c7622e9904de7912e1ce4a7797f		complete		6524205dcaa30f89a314b945	computer	Desktop or Laptop	Windows 10	Chrome 117.0.0.0	1920x1080	1920x931			0	pcp_vt	13	Spreadsheet1	20	pcp_vt	pcp_vt_stimulus	9rtpjb	2	response	11	8491.880999999994	9476.197999999975	9486.247000023839	8491.880999999994	9476.197999999975	9486.247000023839	1	8491.880999999994	994.3660000238451	0	estimated_value_response	Number Entry	estimated_value_input	5	object-50	pcp_vt	pcp_vt_stimulus	1	live_1_pcp_vt_size_20_set_0_30.png	live_1_pcp_vt_size_20_set_0_30	1	20	0	30				2	1	12	1			
78	1696863309509	09/10/2023 14:55:09	1696866909509	1	09/10/2023 16:55:09	142982	9	task-i1zc		32116403	623c7c7622e9904de7912e1ce4a7797f		complete		6524205dcaa30f89a314b945	computer	Desktop or Laptop	Windows 10	Chrome 117.0.0.0	1920x1080	1920x931			0	pcp_vt	13	Spreadsheet1	21	pcp_vt	fixation	gec9f5	1	continue		1968.6320000000414	1968.6320000000414	1968.6320000000414	1968.6320000000414	1968.6320000000414	1968.6320000000414	1	1968.6320000000414	0	0		Fixation Timing	Fixation	1	object-29	pcp_vt	pcp_vt_stimulus	1	live_1_pcp_vt_size_40_set_0_30.png	live_1_pcp_vt_size_40_set_0_30	1	40	0	30				30	1	40	1			
79	1696863322943	09/10/2023 14:55:22	1696866922943	1	09/10/2023 16:55:22	142982	9	task-i1zc		32116403	623c7c7622e9904de7912e1ce4a7797f		complete		6524205dcaa30f89a314b945	computer	Desktop or Laptop	Windows 10	Chrome 117.0.0.0	1920x1080	1920x931			0	pcp_vt	13	Spreadsheet1	21	pcp_vt	pcp_vt_stimulus	9rtpjb	2	continue		13434.517000047665	13430.149999999965	13434.517000047665	13434.517000047665	13430.149999999965	13434.517000047665	1	13434.517000047665	0	0		Click To Continue	submit_button	4	object-49	pcp_vt	pcp_vt_stimulus	1	live_1_pcp_vt_size_40_set_0_30.png	live_1_pcp_vt_size_40_set_0_30	1	40	0	30				30	1	40	1			
80	1696863322945	09/10/2023 14:55:22	1696866922945	1	09/10/2023 16:55:22	142982	9	task-i1zc		32116403	623c7c7622e9904de7912e1ce4a7797f		complete		6524205dcaa30f89a314b945	computer	Desktop or Laptop	Windows 10	Chrome 117.0.0.0	1920x1080	1920x931			0	pcp_vt	13	Spreadsheet1	21	pcp_vt	pcp_vt_stimulus	9rtpjb	2	response	20	12712.806999999972	13430.149999999965	13436.116999952297	12712.806999999972	13430.149999999965	13436.116999952297	1	12712.806999999972	723.3099999523256	0	estimated_value_response	Number Entry	estimated_value_input	5	object-50	pcp_vt	pcp_vt_stimulus	1	live_1_pcp_vt_size_40_set_0_30.png	live_1_pcp_vt_size_40_set_0_30	1	40	0	30				30	1	40	1			
81	1696863324908	09/10/2023 14:55:24	1696866924908	1	09/10/2023 16:55:24	142982	9	task-i1zc		32116403	623c7c7622e9904de7912e1ce4a7797f		complete		6524205dcaa30f89a314b945	computer	Desktop or Laptop	Windows 10	Chrome 117.0.0.0	1920x1080	1920x931			0	pcp_vt	13	Spreadsheet1	22	pcp_vt	fixation	gec9f5	1	continue		1968.6500000000233	1968.6500000000233	1968.6500000000233	1968.6500000000233	1968.6500000000233	1968.6500000000233	1	1968.6500000000233	0	0		Fixation Timing	Fixation	1	object-29	pcp_vt	pcp_vt_stimulus	1	live_3_pcp_vt_size_40_set_0_240.png	live_3_pcp_vt_size_40_set_0_240	3	40	0	240				21	8	101	1			
82	1696863333854	09/10/2023 14:55:33	1696866933854	1	09/10/2023 16:55:33	142982	9	task-i1zc		32116403	623c7c7622e9904de7912e1ce4a7797f		complete		6524205dcaa30f89a314b945	computer	Desktop or Laptop	Windows 10	Chrome 117.0.0.0	1920x1080	1920x931			0	pcp_vt	13	Spreadsheet1	22	pcp_vt	pcp_vt_stimulus	9rtpjb	2	continue		8947.117000023834	8942.309000000008	8947.117000023834	8947.117000023834	8942.309000000008	8947.117000023834	1	8947.117000023834	0	0		Click To Continue	submit_button	4	object-49	pcp_vt	pcp_vt_stimulus	1	live_3_pcp_vt_size_40_set_0_240.png	live_3_pcp_vt_size_40_set_0_240	3	40	0	240				21	8	101	1			
83	1696863333856	09/10/2023 14:55:33	1696866933856	1	09/10/2023 16:55:33	142982	9	task-i1zc		32116403	623c7c7622e9904de7912e1ce4a7797f		complete		6524205dcaa30f89a314b945	computer	Desktop or Laptop	Windows 10	Chrome 117.0.0.0	1920x1080	1920x931			0	pcp_vt	13	Spreadsheet1	22	pcp_vt	pcp_vt_stimulus	9rtpjb	2	response	101	7907.940999999992	8942.309000000008	8949.316999952309	7907.940999999992	8942.309000000008	8949.316999952309	1	7907.940999999992	1041.3759999523172	0	estimated_value_response	Number Entry	estimated_value_input	5	object-50	pcp_vt	pcp_vt_stimulus	1	live_3_pcp_vt_size_40_set_0_240.png	live_3_pcp_vt_size_40_set_0_240	3	40	0	240				21	8	101	1			
84	1696863335819	09/10/2023 14:55:35	1696866935819	1	09/10/2023 16:55:35	142982	9	task-i1zc		32116403	623c7c7622e9904de7912e1ce4a7797f		complete		6524205dcaa30f89a314b945	computer	Desktop or Laptop	Windows 10	Chrome 117.0.0.0	1920x1080	1920x931			0	pcp_vt	13	Spreadsheet1	23	pcp_vt	fixation	gec9f5	1	continue		1968.6680000000051	1968.6680000000051	1968.6680000000051	1968.6680000000051	1968.6680000000051	1968.6680000000051	1	1968.6680000000051	0	0		Fixation Timing	Fixation	1	object-29	pcp_vt	pcp_vt_stimulus	1	live_2_pcp_vt_size_40_set_0_240.png	live_2_pcp_vt_size_40_set_0_240	2	40	0	240				15	8	95	1			
85	1696863350105	09/10/2023 14:55:50	1696866950105	1	09/10/2023 16:55:50	142982	9	task-i1zc		32116403	623c7c7622e9904de7912e1ce4a7797f		complete		6524205dcaa30f89a314b945	computer	Desktop or Laptop	Windows 10	Chrome 117.0.0.0	1920x1080	1920x931			0	pcp_vt	13	Spreadsheet1	23	pcp_vt	pcp_vt_stimulus	9rtpjb	2	continue		14286.939999976137	14280.99199999997	14286.939999976137	14286.939999976137	14280.99199999997	14286.939999976137	1	14286.939999976137	0	0		Click To Continue	submit_button	4	object-49	pcp_vt	pcp_vt_stimulus	1	live_2_pcp_vt_size_40_set_0_240.png	live_2_pcp_vt_size_40_set_0_240	2	40	0	240				15	8	95	1			
86	1696863350107	09/10/2023 14:55:50	1696866950107	1	09/10/2023 16:55:50	142982	9	task-i1zc		32116403	623c7c7622e9904de7912e1ce4a7797f		complete		6524205dcaa30f89a314b945	computer	Desktop or Laptop	Windows 10	Chrome 117.0.0.0	1920x1080	1920x931			0	pcp_vt	13	Spreadsheet1	23	pcp_vt	pcp_vt_stimulus	9rtpjb	2	response	102	12779.505000000005	14280.99199999997	14288.339999952295	12779.505000000005	14280.99199999997	14288.339999952295	1	12779.505000000005	1508.8349999522907	0	estimated_value_response	Number Entry	estimated_value_input	5	object-50	pcp_vt	pcp_vt_stimulus	1	live_2_pcp_vt_size_40_set_0_240.png	live_2_pcp_vt_size_40_set_0_240	2	40	0	240				15	8	95	1			
87	1696863352068	09/10/2023 14:55:52	1696866952068	1	09/10/2023 16:55:52	142982	9	task-i1zc		32116403	623c7c7622e9904de7912e1ce4a7797f		complete		6524205dcaa30f89a314b945	computer	Desktop or Laptop	Windows 10	Chrome 117.0.0.0	1920x1080	1920x931			0	pcp_vt	13	Spreadsheet1	24	pcp_vt	fixation	gec9f5	1	continue		1968.649000000034	1968.649000000034	1968.649000000034	1968.649000000034	1968.649000000034	1968.649000000034	1	1968.649000000034	0	0		Fixation Timing	Fixation	1	object-29	pcp_vt	pcp_vt_stimulus	1	live_2_pcp_vt_size_20_set_0_480.png	live_2_pcp_vt_size_20_set_0_480	2	20	0	480				46	16	206	1			
88	1696863364970	09/10/2023 14:56:04	1696866964970	1	09/10/2023 16:56:04	142982	9	task-i1zc		32116403	623c7c7622e9904de7912e1ce4a7797f		complete		6524205dcaa30f89a314b945	computer	Desktop or Laptop	Windows 10	Chrome 117.0.0.0	1920x1080	1920x931			0	pcp_vt	13	Spreadsheet1	24	pcp_vt	pcp_vt_stimulus	9rtpjb	2	continue		12902.298999976134	12896.283999999985	12902.298999976134	12902.298999976134	12896.283999999985	12902.298999976134	1	12902.298999976134	0	0		Click To Continue	submit_button	4	object-49	pcp_vt	pcp_vt_stimulus	1	live_2_pcp_vt_size_20_set_0_480.png	live_2_pcp_vt_size_20_set_0_480	2	20	0	480				46	16	206	1			
89	1696863364971	09/10/2023 14:56:04	1696866964971	1	09/10/2023 16:56:04	142982	9	task-i1zc		32116403	623c7c7622e9904de7912e1ce4a7797f		complete		6524205dcaa30f89a314b945	computer	Desktop or Laptop	Windows 10	Chrome 117.0.0.0	1920x1080	1920x931			0	pcp_vt	13	Spreadsheet1	24	pcp_vt	pcp_vt_stimulus	9rtpjb	2	response	207	10961.009999999951	12896.283999999985	12903.59900004766	10961.009999999951	12896.283999999985	12903.59900004766	1	10961.009999999951	1942.5890000477084	0	estimated_value_response	Number Entry	estimated_value_input	5	object-50	pcp_vt	pcp_vt_stimulus	1	live_2_pcp_vt_size_20_set_0_480.png	live_2_pcp_vt_size_20_set_0_480	2	20	0	480				46	16	206	1			
90	1696863366934	09/10/2023 14:56:06	1696866966934	1	09/10/2023 16:56:06	142982	9	task-i1zc		32116403	623c7c7622e9904de7912e1ce4a7797f		complete		6524205dcaa30f89a314b945	computer	Desktop or Laptop	Windows 10	Chrome 117.0.0.0	1920x1080	1920x931			0	pcp_vt	13	Spreadsheet1	25	pcp_vt	fixation	gec9f5	1	continue		1968.6269999999786	1968.6269999999786	1968.6269999999786	1968.6269999999786	1968.6269999999786	1968.6269999999786	1	1968.6269999999786	0	0		Fixation Timing	Fixation	1	object-29	pcp_vt	pcp_vt_stimulus	1	live_3_pcp_vt_size_20_set_0_480.png	live_3_pcp_vt_size_20_set_0_480	3	20	0	480				35	16	195	1			
91	1696863383444	09/10/2023 14:56:23	1696866983444	1	09/10/2023 16:56:23	142982	9	task-i1zc		32116403	623c7c7622e9904de7912e1ce4a7797f		complete		6524205dcaa30f89a314b945	computer	Desktop or Laptop	Windows 10	Chrome 117.0.0.0	1920x1080	1920x931			0	pcp_vt	13	Spreadsheet1	25	pcp_vt	pcp_vt_stimulus	9rtpjb	2	continue		16511.688000047696	16499.93300000002	16511.688000047696	16511.688000047696	16499.93300000002	16511.688000047696	1	16511.688000047696	0	0		Click To Continue	submit_button	4	object-49	pcp_vt	pcp_vt_stimulus	1	live_3_pcp_vt_size_20_set_0_480.png	live_3_pcp_vt_size_20_set_0_480	3	20	0	480				35	16	195	1			
92	1696863383446	09/10/2023 14:56:23	1696866983446	1	09/10/2023 16:56:23	142982	9	task-i1zc		32116403	623c7c7622e9904de7912e1ce4a7797f		complete		6524205dcaa30f89a314b945	computer	Desktop or Laptop	Windows 10	Chrome 117.0.0.0	1920x1080	1920x931			0	pcp_vt	13	Spreadsheet1	25	pcp_vt	pcp_vt_stimulus	9rtpjb	2	response	198	13997.39300000004	16499.93300000002	16512.988000000012	13997.39300000004	16499.93300000002	16512.988000000012	1	13997.39300000004	2515.594999999972	0	estimated_value_response	Number Entry	estimated_value_input	5	object-50	pcp_vt	pcp_vt_stimulus	1	live_3_pcp_vt_size_20_set_0_480.png	live_3_pcp_vt_size_20_set_0_480	3	20	0	480				35	16	195	1			
93	1696863385402	09/10/2023 14:56:25	1696866985402	1	09/10/2023 16:56:25	142982	9	task-i1zc		32116403	623c7c7622e9904de7912e1ce4a7797f		complete		6524205dcaa30f89a314b945	computer	Desktop or Laptop	Windows 10	Chrome 117.0.0.0	1920x1080	1920x931			0	pcp_vt	13	Spreadsheet1	26	pcp_vt	fixation	gec9f5	1	continue		1968.6419999999925	1968.6419999999925	1968.6419999999925	1968.6419999999925	1968.6419999999925	1968.6419999999925	1	1968.6419999999925	0	0		Fixation Timing	Fixation	1	object-29	pcp_vt	pcp_vt_stimulus	1	live_2_pcp_vt_size_40_set_0_30.png	live_2_pcp_vt_size_40_set_0_30	2	40	0	30				15	1	25	1			
94	1696863396399	09/10/2023 14:56:36	1696866996399	1	09/10/2023 16:56:36	142982	9	task-i1zc		32116403	623c7c7622e9904de7912e1ce4a7797f		complete		6524205dcaa30f89a314b945	computer	Desktop or Laptop	Windows 10	Chrome 117.0.0.0	1920x1080	1920x931			0	pcp_vt	13	Spreadsheet1	26	pcp_vt	pcp_vt_stimulus	9rtpjb	2	continue		10998.312999976159	10994.406000000017	10998.312999976159	10998.312999976159	10994.406000000017	10998.312999976159	1	10998.312999976159	0	0		Click To Continue	submit_button	4	object-49	pcp_vt	pcp_vt_stimulus	1	live_2_pcp_vt_size_40_set_0_30.png	live_2_pcp_vt_size_40_set_0_30	2	40	0	30				15	1	25	1			
95	1696863396401	09/10/2023 14:56:36	1696866996401	1	09/10/2023 16:56:36	142982	9	task-i1zc		32116403	623c7c7622e9904de7912e1ce4a7797f		complete		6524205dcaa30f89a314b945	computer	Desktop or Laptop	Windows 10	Chrome 117.0.0.0	1920x1080	1920x931			0	pcp_vt	13	Spreadsheet1	26	pcp_vt	pcp_vt_stimulus	9rtpjb	2	response	25	10310.36499999999	10994.406000000017	10999.913	10310.36499999999	10994.406000000017	10999.913	1	10310.36499999999	689.5480000000098	0	estimated_value_response	Number Entry	estimated_value_input	5	object-50	pcp_vt	pcp_vt_stimulus	1	live_2_pcp_vt_size_40_set_0_30.png	live_2_pcp_vt_size_40_set_0_30	2	40	0	30				15	1	25	1			
96	1696863398365	09/10/2023 14:56:38	1696866998365	1	09/10/2023 16:56:38	142982	9	task-i1zc		32116403	623c7c7622e9904de7912e1ce4a7797f		complete		6524205dcaa30f89a314b945	computer	Desktop or Laptop	Windows 10	Chrome 117.0.0.0	1920x1080	1920x931			0	pcp_vt	13	Spreadsheet1	27	pcp_vt	fixation	gec9f5	1	continue		1968.5970000000088	1968.5970000000088	1968.5970000000088	1968.5970000000088	1968.5970000000088	1968.5970000000088	1	1968.5970000000088	0	0		Fixation Timing	Fixation	1	object-29	pcp_vt	pcp_vt_stimulus	1	live_2_pcp_vt_size_20_set_0_60.png	live_2_pcp_vt_size_20_set_0_60	2	20	0	60				46	2	66	1			
97	1696863409855	09/10/2023 14:56:49	1696867009855	1	09/10/2023 16:56:49	142982	9	task-i1zc		32116403	623c7c7622e9904de7912e1ce4a7797f		complete		6524205dcaa30f89a314b945	computer	Desktop or Laptop	Windows 10	Chrome 117.0.0.0	1920x1080	1920x931			0	pcp_vt	13	Spreadsheet1	27	pcp_vt	pcp_vt_stimulus	9rtpjb	2	continue		11491.20999995229	11478.225999999966	11491.20999995229	11491.20999995229	11478.225999999966	11491.20999995229	1	11491.20999995229	0	0		Click To Continue	submit_button	4	object-49	pcp_vt	pcp_vt_stimulus	1	live_2_pcp_vt_size_20_set_0_60.png	live_2_pcp_vt_size_20_set_0_60	2	20	0	60				46	2	66	1			
98	1696863409857	09/10/2023 14:56:49	1696867009857	1	09/10/2023 16:56:49	142982	9	task-i1zc		32116403	623c7c7622e9904de7912e1ce4a7797f		complete		6524205dcaa30f89a314b945	computer	Desktop or Laptop	Windows 10	Chrome 117.0.0.0	1920x1080	1920x931			0	pcp_vt	13	Spreadsheet1	27	pcp_vt	pcp_vt_stimulus	9rtpjb	2	response	67	10360.469999999972	11478.225999999966	11492.610000047658	10360.469999999972	11478.225999999966	11492.610000047658	1	10360.469999999972	1132.140000047686	0	estimated_value_response	Number Entry	estimated_value_input	5	object-50	pcp_vt	pcp_vt_stimulus	1	live_2_pcp_vt_size_20_set_0_60.png	live_2_pcp_vt_size_20_set_0_60	2	20	0	60				46	2	66	1			
99	1696863411811	09/10/2023 14:56:51	1696867011811	1	09/10/2023 16:56:51	142982	9	task-i1zc		32116403	623c7c7622e9904de7912e1ce4a7797f		complete		6524205dcaa30f89a314b945	computer	Desktop or Laptop	Windows 10	Chrome 117.0.0.0	1920x1080	1920x931			0	pcp_vt	13	Spreadsheet1	28	pcp_vt	fixation	gec9f5	1	continue		1968.63400000002	1968.63400000002	1968.63400000002	1968.63400000002	1968.63400000002	1968.63400000002	1	1968.63400000002	0	0		Fixation Timing	Fixation	1	object-29	pcp_vt	pcp_vt_stimulus	1	live_3_pcp_vt_size_20_set_0_240.png	live_3_pcp_vt_size_20_set_0_240	3	20	0	240				35	8	115	1			
100	1696863423626	09/10/2023 14:57:03	1696867023626	1	09/10/2023 16:57:03	142982	9	task-i1zc		32116403	623c7c7622e9904de7912e1ce4a7797f		complete		6524205dcaa30f89a314b945	computer	Desktop or Laptop	Windows 10	Chrome 117.0.0.0	1920x1080	1920x931			0	pcp_vt	13	Spreadsheet1	28	pcp_vt	pcp_vt_stimulus	9rtpjb	2	continue		11815.449999976147	11812.170999999973	11815.449999976147	11815.449999976147	11812.170999999973	11815.449999976147	1	11815.449999976147	0	0		Click To Continue	submit_button	4	object-49	pcp_vt	pcp_vt_stimulus	1	live_3_pcp_vt_size_20_set_0_240.png	live_3_pcp_vt_size_20_set_0_240	3	20	0	240				35	8	115	1			
101	1696863423628	09/10/2023 14:57:03	1696867023628	1	09/10/2023 16:57:03	142982	9	task-i1zc		32116403	623c7c7622e9904de7912e1ce4a7797f		complete		6524205dcaa30f89a314b945	computer	Desktop or Laptop	Windows 10	Chrome 117.0.0.0	1920x1080	1920x931			0	pcp_vt	13	Spreadsheet1	28	pcp_vt	pcp_vt_stimulus	9rtpjb	2	response	117	9509.56899999996	11812.170999999973	11817.250000047672	9509.56899999996	11812.170999999973	11817.250000047672	1	9509.56899999996	2307.6810000477126	0	estimated_value_response	Number Entry	estimated_value_input	5	object-50	pcp_vt	pcp_vt_stimulus	1	live_3_pcp_vt_size_20_set_0_240.png	live_3_pcp_vt_size_20_set_0_240	3	20	0	240				35	8	115	1			
102	1696863425592	09/10/2023 14:57:05	1696867025592	1	09/10/2023 16:57:05	142982	9	task-i1zc		32116403	623c7c7622e9904de7912e1ce4a7797f		complete		6524205dcaa30f89a314b945	computer	Desktop or Laptop	Windows 10	Chrome 117.0.0.0	1920x1080	1920x931			0	pcp_vt	13	Spreadsheet1	29	pcp_vt	fixation	gec9f5	1	continue		1968.3450000000303	1968.3450000000303	1968.3450000000303	1968.3450000000303	1968.3450000000303	1968.3450000000303	1	1968.3450000000303	0	0		Fixation Timing	Fixation	1	object-29	pcp_vt	pcp_vt_stimulus	1	live_1_pcp_vt_size_40_set_0_60.png	live_1_pcp_vt_size_40_set_0_60	1	40	0	60				30	2	50	1			
103	1696863439340	09/10/2023 14:57:19	1696867039340	1	09/10/2023 16:57:19	142982	9	task-i1zc		32116403	623c7c7622e9904de7912e1ce4a7797f		complete		6524205dcaa30f89a314b945	computer	Desktop or Laptop	Windows 10	Chrome 117.0.0.0	1920x1080	1920x931			0	pcp_vt	13	Spreadsheet1	29	pcp_vt	pcp_vt_stimulus	9rtpjb	2	continue		13747.11499999999	13730.469999999972	13747.11499999999	13747.11499999999	13730.469999999972	13747.11499999999	1	13747.11499999999	0	0		Click To Continue	submit_button	4	object-49	pcp_vt	pcp_vt_stimulus	1	live_1_pcp_vt_size_40_set_0_60.png	live_1_pcp_vt_size_40_set_0_60	1	40	0	60				30	2	50	1			
104	1696863439342	09/10/2023 14:57:19	1696867039342	1	09/10/2023 16:57:19	142982	9	task-i1zc		32116403	623c7c7622e9904de7912e1ce4a7797f		complete		6524205dcaa30f89a314b945	computer	Desktop or Laptop	Windows 10	Chrome 117.0.0.0	1920x1080	1920x931			0	pcp_vt	13	Spreadsheet1	29	pcp_vt	pcp_vt_stimulus	9rtpjb	2	response	50	12846.290000000037	13730.469999999972	13747.11499999999	12846.290000000037	13730.469999999972	13747.11499999999	1	12846.290000000037	900.8249999999534	0	estimated_value_response	Number Entry	estimated_value_input	5	object-50	pcp_vt	pcp_vt_stimulus	1	live_1_pcp_vt_size_40_set_0_60.png	live_1_pcp_vt_size_40_set_0_60	1	40	0	60				30	2	50	1			
105	1696863441291	09/10/2023 14:57:21	1696867041291	1	09/10/2023 16:57:21	142982	9	task-i1zc		32116403	623c7c7622e9904de7912e1ce4a7797f		complete		6524205dcaa30f89a314b945	computer	Desktop or Laptop	Windows 10	Chrome 117.0.0.0	1920x1080	1920x931			0	pcp_vt	13	Spreadsheet1	30	pcp_vt	fixation	gec9f5	1	continue		1968.6049999999814	1968.6049999999814	1968.6049999999814	1968.6049999999814	1968.6049999999814	1968.6049999999814	1	1968.6049999999814	0	0		Fixation Timing	Fixation	1	object-29	pcp_vt	pcp_vt_stimulus	1	live_3_pcp_vt_size_40_set_0_60.png	live_3_pcp_vt_size_40_set_0_60	3	40	0	60				21	2	41	1			
106	1696863451597	09/10/2023 14:57:31	1696867051597	1	09/10/2023 16:57:31	142982	9	task-i1zc		32116403	623c7c7622e9904de7912e1ce4a7797f		complete		6524205dcaa30f89a314b945	computer	Desktop or Laptop	Windows 10	Chrome 117.0.0.0	1920x1080	1920x931			0	pcp_vt	13	Spreadsheet1	30	pcp_vt	pcp_vt_stimulus	9rtpjb	2	continue		10306.059000023874	10293.717000000062	10306.059000023874	10306.059000023874	10293.717000000062	10306.059000023874	1	10306.059000023874	0	0		Click To Continue	submit_button	4	object-49	pcp_vt	pcp_vt_stimulus	1	live_3_pcp_vt_size_40_set_0_60.png	live_3_pcp_vt_size_40_set_0_60	3	40	0	60				21	2	41	1			
107	1696863451598	09/10/2023 14:57:31	1696867051598	1	09/10/2023 16:57:31	142982	9	task-i1zc		32116403	623c7c7622e9904de7912e1ce4a7797f		complete		6524205dcaa30f89a314b945	computer	Desktop or Laptop	Windows 10	Chrome 117.0.0.0	1920x1080	1920x931			0	pcp_vt	13	Spreadsheet1	30	pcp_vt	pcp_vt_stimulus	9rtpjb	2	response	41	9609.702000000048	10293.717000000062	10307.659000047715	9609.702000000048	10293.717000000062	10307.659000047715	1	9609.702000000048	697.957000047667	0	estimated_value_response	Number Entry	estimated_value_input	5	object-50	pcp_vt	pcp_vt_stimulus	1	live_3_pcp_vt_size_40_set_0_60.png	live_3_pcp_vt_size_40_set_0_60	3	40	0	60				21	2	41	1			
108	1696863453555	09/10/2023 14:57:33	1696867053555	1	09/10/2023 16:57:33	142982	9	task-i1zc		32116403	623c7c7622e9904de7912e1ce4a7797f		complete		6524205dcaa30f89a314b945	computer	Desktop or Laptop	Windows 10	Chrome 117.0.0.0	1920x1080	1920x931			0	pcp_vt	13	Spreadsheet1	1	attention_button	fixation	ar91nx	1	continue		1968.6059999999125	1968.6059999999125	1968.6059999999125	1968.6059999999125	1968.6059999999125	1968.6059999999125	1	1968.6059999999125	0	0		Fixation Timing	Fixation	1	object-47	attention_button	attention_button_select										A							
109	1696863454637	09/10/2023 14:57:34	1696867054637	1	09/10/2023 16:57:34	142982	9	task-i1zc		32116403	623c7c7622e9904de7912e1ce4a7797f		complete		6524205dcaa30f89a314b945	computer	Desktop or Laptop	Windows 10	Chrome 117.0.0.0	1920x1080	1920x931			0	pcp_vt	13	Spreadsheet1	1	attention_button	attention_button_select	yjsrnw	2	response	A	1084.035999976215	1067.7470000000903	1084.035999976215	1084.035999976215	1067.7470000000903	1084.035999976215	1	1084.035999976215	0	0		Click Response	Response	1	object-81	attention_button	attention_button_select										A							
110	1696863456590	09/10/2023 14:57:36	1696867056590	1	09/10/2023 16:57:36	142982	9	task-i1zc		32116403	623c7c7622e9904de7912e1ce4a7797f		complete		6524205dcaa30f89a314b945	computer	Desktop or Laptop	Windows 10	Chrome 117.0.0.0	1920x1080	1920x931			0	pcp_vt	13	Spreadsheet1	31	pcp_vt	fixation	gec9f5	1	continue		1968.6350000000093	1968.6350000000093	1968.6350000000093	1968.6350000000093	1968.6350000000093	1968.6350000000093	1	1968.6350000000093	0	0		Fixation Timing	Fixation	1	object-29	pcp_vt	pcp_vt_stimulus	1	live_1_pcp_vt_size_20_set_0_480.png	live_1_pcp_vt_size_20_set_0_480	1	20	0	480				2	16	162	1			
111	1696863469135	09/10/2023 14:57:49	1696867069135	1	09/10/2023 16:57:49	142982	9	task-i1zc		32116403	623c7c7622e9904de7912e1ce4a7797f		complete		6524205dcaa30f89a314b945	computer	Desktop or Laptop	Windows 10	Chrome 117.0.0.0	1920x1080	1920x931			0	pcp_vt	13	Spreadsheet1	31	pcp_vt	pcp_vt_stimulus	9rtpjb	2	continue		12545.45400004764	12529.27899999998	12545.45400004764	12545.45400004764	12529.27899999998	12545.45400004764	1	12545.45400004764	0	0		Click To Continue	submit_button	4	object-49	pcp_vt	pcp_vt_stimulus	1	live_1_pcp_vt_size_20_set_0_480.png	live_1_pcp_vt_size_20_set_0_480	1	20	0	480				2	16	162	1			
112	1696863469137	09/10/2023 14:57:49	1696867069137	1	09/10/2023 16:57:49	142982	9	task-i1zc		32116403	623c7c7622e9904de7912e1ce4a7797f		complete		6524205dcaa30f89a314b945	computer	Desktop or Laptop	Windows 10	Chrome 117.0.0.0	1920x1080	1920x931			0	pcp_vt	13	Spreadsheet1	31	pcp_vt	pcp_vt_stimulus	9rtpjb	2	response	162	11628.370999999926	12529.27899999998	12545.962000000058	11628.370999999926	12529.27899999998	12545.962000000058	1	11628.370999999926	917.5910000001313	0	estimated_value_response	Number Entry	estimated_value_input	5	object-50	pcp_vt	pcp_vt_stimulus	1	live_1_pcp_vt_size_20_set_0_480.png	live_1_pcp_vt_size_20_set_0_480	1	20	0	480				2	16	162	1			
113	1696863471088	09/10/2023 14:57:51	1696867071088	1	09/10/2023 16:57:51	142982	9	task-i1zc		32116403	623c7c7622e9904de7912e1ce4a7797f		complete		6524205dcaa30f89a314b945	computer	Desktop or Laptop	Windows 10	Chrome 117.0.0.0	1920x1080	1920x931			0	pcp_vt	13	Spreadsheet1	32	pcp_vt	fixation	gec9f5	1	continue		1968.6209999999264	1968.6209999999264	1968.6209999999264	1968.6209999999264	1968.6209999999264	1968.6209999999264	1	1968.6209999999264	0	0		Fixation Timing	Fixation	1	object-29	pcp_vt	pcp_vt_stimulus	1	live_2_pcp_vt_size_40_set_0_60.png	live_2_pcp_vt_size_40_set_0_60	2	40	0	60				15	2	35	1			
114	1696863485226	09/10/2023 14:58:05	1696867085226	1	09/10/2023 16:58:05	142982	9	task-i1zc		32116403	623c7c7622e9904de7912e1ce4a7797f		complete		6524205dcaa30f89a314b945	computer	Desktop or Laptop	Windows 10	Chrome 117.0.0.0	1920x1080	1920x931			0	pcp_vt	13	Spreadsheet1	32	pcp_vt	pcp_vt_stimulus	9rtpjb	2	continue		14138.653999952367	14130.860000000102	14138.653999952367	14138.653999952367	14130.860000000102	14138.653999952367	1	14138.653999952367	0	0		Click To Continue	submit_button	4	object-49	pcp_vt	pcp_vt_stimulus	1	live_2_pcp_vt_size_40_set_0_60.png	live_2_pcp_vt_size_40_set_0_60	2	40	0	60				15	2	35	1			
115	1696863485227	09/10/2023 14:58:05	1696867085227	1	09/10/2023 16:58:05	142982	9	task-i1zc		32116403	623c7c7622e9904de7912e1ce4a7797f		complete		6524205dcaa30f89a314b945	computer	Desktop or Laptop	Windows 10	Chrome 117.0.0.0	1920x1080	1920x931			0	pcp_vt	13	Spreadsheet1	32	pcp_vt	pcp_vt_stimulus	9rtpjb	2	response	35	11695.226000000024	14130.860000000102	14139.954000023892	11695.226000000024	14130.860000000102	14139.954000023892	1	11695.226000000024	2444.728000023868	0	estimated_value_response	Number Entry	estimated_value_input	5	object-50	pcp_vt	pcp_vt_stimulus	1	live_2_pcp_vt_size_40_set_0_60.png	live_2_pcp_vt_size_40_set_0_60	2	40	0	60				15	2	35	1			
116	1696863487188	09/10/2023 14:58:07	1696867087188	1	09/10/2023 16:58:07	142982	9	task-i1zc		32116403	623c7c7622e9904de7912e1ce4a7797f		complete		6524205dcaa30f89a314b945	computer	Desktop or Laptop	Windows 10	Chrome 117.0.0.0	1920x1080	1920x931			0	pcp_vt	13	Spreadsheet1	33	pcp_vt	fixation	gec9f5	1	continue		1968.6389999999665	1968.6389999999665	1968.6389999999665	1968.6389999999665	1968.6389999999665	1968.6389999999665	1	1968.6389999999665	0	0		Fixation Timing	Fixation	1	object-29	pcp_vt	pcp_vt_stimulus	1	live_1_pcp_vt_size_10_set_0_60.png	live_1_pcp_vt_size_10_set_0_60	1	10	0	60				40	2	60	1			
117	1696863494349	09/10/2023 14:58:14	1696867094349	1	09/10/2023 16:58:14	142982	9	task-i1zc		32116403	623c7c7622e9904de7912e1ce4a7797f		complete		6524205dcaa30f89a314b945	computer	Desktop or Laptop	Windows 10	Chrome 117.0.0.0	1920x1080	1920x931			0	pcp_vt	13	Spreadsheet1	33	pcp_vt	pcp_vt_stimulus	9rtpjb	2	continue		7162.154999952298	7157.197999999975	7162.154999952298	7162.154999952298	7157.197999999975	7162.154999952298	1	7162.154999952298	0	0		Click To Continue	submit_button	4	object-49	pcp_vt	pcp_vt_stimulus	1	live_1_pcp_vt_size_10_set_0_60.png	live_1_pcp_vt_size_10_set_0_60	1	10	0	60				40	2	60	1			
118	1696863494349	09/10/2023 14:58:14	1696867094349	1	09/10/2023 16:58:14	142982	9	task-i1zc		32116403	623c7c7622e9904de7912e1ce4a7797f		complete		6524205dcaa30f89a314b945	computer	Desktop or Laptop	Windows 10	Chrome 117.0.0.0	1920x1080	1920x931			0	pcp_vt	13	Spreadsheet1	33	pcp_vt	pcp_vt_stimulus	9rtpjb	2	response	60	6222.956000000006	7157.197999999975	7162.455000023823	6222.956000000006	7157.197999999975	7162.455000023823	1	6222.956000000006	939.4990000238176	0	estimated_value_response	Number Entry	estimated_value_input	5	object-50	pcp_vt	pcp_vt_stimulus	1	live_1_pcp_vt_size_10_set_0_60.png	live_1_pcp_vt_size_10_set_0_60	1	10	0	60				40	2	60	1			
119	1696863496315	09/10/2023 14:58:16	1696867096315	1	09/10/2023 16:58:16	142982	9	task-i1zc		32116403	623c7c7622e9904de7912e1ce4a7797f		complete		6524205dcaa30f89a314b945	computer	Desktop or Laptop	Windows 10	Chrome 117.0.0.0	1920x1080	1920x931			0	pcp_vt	13	Spreadsheet1	34	pcp_vt	fixation	gec9f5	1	continue		1968.6520000000019	1968.6520000000019	1968.6520000000019	1968.6520000000019	1968.6520000000019	1968.6520000000019	1	1968.6520000000019	0	0		Fixation Timing	Fixation	1	object-29	pcp_vt	pcp_vt_stimulus	1	live_2_pcp_vt_size_10_set_0_30.png	live_2_pcp_vt_size_10_set_0_30	2	10	0	30				45	1	55	1			
120	1696863497694	09/10/2023 14:58:17	1696867097694	1	09/10/2023 16:58:17	142982	9	task-i1zc		32116403	623c7c7622e9904de7912e1ce4a7797f		complete		6524205dcaa30f89a314b945	computer	Desktop or Laptop	Windows 10	Chrome 117.0.0.0	1920x1080	1920x931			0	pcp_vt	13	Spreadsheet1	34	pcp_vt	pcp_vt_stimulus	9rtpjb	2	response		1381.1050000238465	1368.0350000000326	1381.1050000238465	1381.1050000238465	1368.0350000000326	1381.1050000238465	1	1381.1050000238465	0	0		Keyboard Response	estimated_value_input	5	object-50	pcp_vt	pcp_vt_stimulus	1	live_2_pcp_vt_size_10_set_0_30.png	live_2_pcp_vt_size_10_set_0_30	2	10	0	30				45	1	55	1			
121	1696863508876	09/10/2023 14:58:28	1696867108876	1	09/10/2023 16:58:28	142982	9	task-i1zc		32116403	623c7c7622e9904de7912e1ce4a7797f		complete		6524205dcaa30f89a314b945	computer	Desktop or Laptop	Windows 10	Chrome 117.0.0.0	1920x1080	1920x931			0	pcp_vt	13	Spreadsheet1	34	pcp_vt	pcp_vt_stimulus	9rtpjb	2	continue		12562.638999999966	12545.956000000006	12562.638999999966	12562.638999999966	12545.956000000006	12562.638999999966	1	12562.638999999966	0	0		Click To Continue	submit_button	4	object-49	pcp_vt	pcp_vt_stimulus	1	live_2_pcp_vt_size_10_set_0_30.png	live_2_pcp_vt_size_10_set_0_30	2	10	0	30				45	1	55	1			
122	1696863508877	09/10/2023 14:58:28	1696867108877	1	09/10/2023 16:58:28	142982	9	task-i1zc		32116403	623c7c7622e9904de7912e1ce4a7797f		complete		6524205dcaa30f89a314b945	computer	Desktop or Laptop	Windows 10	Chrome 117.0.0.0	1920x1080	1920x931			0	pcp_vt	13	Spreadsheet1	34	pcp_vt	pcp_vt_stimulus	9rtpjb	2	response	57	11311.344999999972	12545.956000000006	12562.638999999966	11311.344999999972	12545.956000000006	12562.638999999966	1	11311.344999999972	1251.2939999999944	0	estimated_value_response	Number Entry	estimated_value_input	5	object-50	pcp_vt	pcp_vt_stimulus	1	live_2_pcp_vt_size_10_set_0_30.png	live_2_pcp_vt_size_10_set_0_30	2	10	0	30				45	1	55	1			
123	1696863510828	09/10/2023 14:58:30	1696867110828	1	09/10/2023 16:58:30	142982	9	task-i1zc		32116403	623c7c7622e9904de7912e1ce4a7797f		complete		6524205dcaa30f89a314b945	computer	Desktop or Laptop	Windows 10	Chrome 117.0.0.0	1920x1080	1920x931			0	pcp_vt	13	Spreadsheet1	35	pcp_vt	fixation	gec9f5	1	continue		1968.6319999999832	1968.6319999999832	1968.6319999999832	1968.6319999999832	1968.6319999999832	1968.6319999999832	1	1968.6319999999832	0	0		Fixation Timing	Fixation	1	object-29	pcp_vt	pcp_vt_stimulus	1	live_1_pcp_vt_size_10_set_0_240.png	live_1_pcp_vt_size_10_set_0_240	1	10	0	240				40	8	120	1			
124	1696863512181	09/10/2023 14:58:32	1696867112181	1	09/10/2023 16:58:32	142982	9	task-i1zc		32116403	623c7c7622e9904de7912e1ce4a7797f		complete		6524205dcaa30f89a314b945	computer	Desktop or Laptop	Windows 10	Chrome 117.0.0.0	1920x1080	1920x931			0	pcp_vt	13	Spreadsheet1	35	pcp_vt	pcp_vt_stimulus	9rtpjb	2	response		1353.816999976174	1351.3510000000242	1353.816999976174	1353.816999976174	1351.3510000000242	1353.816999976174	1	1353.816999976174	0	0		Keyboard Response	estimated_value_input	5	object-50	pcp_vt	pcp_vt_stimulus	1	live_1_pcp_vt_size_10_set_0_240.png	live_1_pcp_vt_size_10_set_0_240	1	10	0	240				40	8	120	1			
125	1696863521607	09/10/2023 14:58:41	1696867121607	1	09/10/2023 16:58:41	142982	9	task-i1zc		32116403	623c7c7622e9904de7912e1ce4a7797f		complete		6524205dcaa30f89a314b945	computer	Desktop or Laptop	Windows 10	Chrome 117.0.0.0	1920x1080	1920x931			0	pcp_vt	13	Spreadsheet1	35	pcp_vt	pcp_vt_stimulus	9rtpjb	2	continue		10779.1170000477	10777.48999999999	10779.1170000477	10779.1170000477	10777.48999999999	10779.1170000477	1	10779.1170000477	0	0		Click To Continue	submit_button	4	object-49	pcp_vt	pcp_vt_stimulus	1	live_1_pcp_vt_size_10_set_0_240.png	live_1_pcp_vt_size_10_set_0_240	1	10	0	240				40	8	120	1			
126	1696863521608	09/10/2023 14:58:41	1696867121608	1	09/10/2023 16:58:41	142982	9	task-i1zc		32116403	623c7c7622e9904de7912e1ce4a7797f		complete		6524205dcaa30f89a314b945	computer	Desktop or Laptop	Windows 10	Chrome 117.0.0.0	1920x1080	1920x931			0	pcp_vt	13	Spreadsheet1	35	pcp_vt	pcp_vt_stimulus	9rtpjb	2	response	120	9626.349000000046	10777.48999999999	10780.816999976174	9626.349000000046	10777.48999999999	10780.816999976174	1	9626.349000000046	1154.4679999761283	0	estimated_value_response	Number Entry	estimated_value_input	5	object-50	pcp_vt	pcp_vt_stimulus	1	live_1_pcp_vt_size_10_set_0_240.png	live_1_pcp_vt_size_10_set_0_240	1	10	0	240				40	8	120	1			
127	1696863523574	09/10/2023 14:58:43	1696867123574	1	09/10/2023 16:58:43	142982	9	task-i1zc		32116403	623c7c7622e9904de7912e1ce4a7797f		complete		6524205dcaa30f89a314b945	computer	Desktop or Laptop	Windows 10	Chrome 117.0.0.0	1920x1080	1920x931			0	pcp_vt	13	Spreadsheet1	36	pcp_vt	fixation	gec9f5	1	continue		1968.6639999999898	1968.6639999999898	1968.6639999999898	1968.6639999999898	1968.6639999999898	1968.6639999999898	1	1968.6639999999898	0	0		Fixation Timing	Fixation	1	object-29	pcp_vt	pcp_vt_stimulus	1	live_3_pcp_vt_size_40_set_0_120.png	live_3_pcp_vt_size_40_set_0_120	3	40	0	120				21	4	61	1			
128	1696863532353	09/10/2023 14:58:52	1696867132353	1	09/10/2023 16:58:52	142982	9	task-i1zc		32116403	623c7c7622e9904de7912e1ce4a7797f		complete		6524205dcaa30f89a314b945	computer	Desktop or Laptop	Windows 10	Chrome 117.0.0.0	1920x1080	1920x931			0	pcp_vt	13	Spreadsheet1	36	pcp_vt	pcp_vt_stimulus	9rtpjb	2	continue		8779.263000000035	8775.494999999995	8779.263000000035	8779.263000000035	8775.494999999995	8779.263000000035	1	8779.263000000035	0	0		Click To Continue	submit_button	4	object-49	pcp_vt	pcp_vt_stimulus	1	live_3_pcp_vt_size_40_set_0_120.png	live_3_pcp_vt_size_40_set_0_120	3	40	0	120				21	4	61	1			
129	1696863532355	09/10/2023 14:58:52	1696867132355	1	09/10/2023 16:58:52	142982	9	task-i1zc		32116403	623c7c7622e9904de7912e1ce4a7797f		complete		6524205dcaa30f89a314b945	computer	Desktop or Laptop	Windows 10	Chrome 117.0.0.0	1920x1080	1920x931			0	pcp_vt	13	Spreadsheet1	36	pcp_vt	pcp_vt_stimulus	9rtpjb	2	response	60	7957.982000000076	8775.494999999995	8780.96300004772	7957.982000000076	8775.494999999995	8780.96300004772	1	7957.982000000076	822.9810000476427	0	estimated_value_response	Number Entry	estimated_value_input	5	object-50	pcp_vt	pcp_vt_stimulus	1	live_3_pcp_vt_size_40_set_0_120.png	live_3_pcp_vt_size_40_set_0_120	3	40	0	120				21	4	61	1			
130	1696863534319	09/10/2023 14:58:54	1696867134319	1	09/10/2023 16:58:54	142982	9	task-i1zc		32116403	623c7c7622e9904de7912e1ce4a7797f		complete		6524205dcaa30f89a314b945	computer	Desktop or Laptop	Windows 10	Chrome 117.0.0.0	1920x1080	1920x931			0	pcp_vt	13	Spreadsheet1	37	pcp_vt	fixation	gec9f5	1	continue		1968.6330000000307	1968.6330000000307	1968.6330000000307	1968.6330000000307	1968.6330000000307	1968.6330000000307	1	1968.6330000000307	0	0		Fixation Timing	Fixation	1	object-29	pcp_vt	pcp_vt_stimulus	1	live_1_pcp_vt_size_10_set_0_120.png	live_1_pcp_vt_size_10_set_0_120	1	10	0	120				40	4	80	1			
131	1696863541112	09/10/2023 14:59:01	1696867141112	1	09/10/2023 16:59:01	142982	9	task-i1zc		32116403	623c7c7622e9904de7912e1ce4a7797f		complete		6524205dcaa30f89a314b945	computer	Desktop or Laptop	Windows 10	Chrome 117.0.0.0	1920x1080	1920x931			0	pcp_vt	13	Spreadsheet1	37	pcp_vt	pcp_vt_stimulus	9rtpjb	2	continue		6794.434999952326	6790.141999999993	6794.434999952326	6794.434999952326	6790.141999999993	6794.434999952326	1	6794.434999952326	0	0		Click To Continue	submit_button	4	object-49	pcp_vt	pcp_vt_stimulus	1	live_1_pcp_vt_size_10_set_0_120.png	live_1_pcp_vt_size_10_set_0_120	1	10	0	120				40	4	80	1			
132	1696863541112	09/10/2023 14:59:01	1696867141112	1	09/10/2023 16:59:01	142982	9	task-i1zc		32116403	623c7c7622e9904de7912e1ce4a7797f		complete		6524205dcaa30f89a314b945	computer	Desktop or Laptop	Windows 10	Chrome 117.0.0.0	1920x1080	1920x931			0	pcp_vt	13	Spreadsheet1	37	pcp_vt	pcp_vt_stimulus	9rtpjb	2	response	80	6022.704000000027	6790.141999999993	6794.735000023851	6022.704000000027	6790.141999999993	6794.735000023851	1	6022.704000000027	772.0310000238242	0	estimated_value_response	Number Entry	estimated_value_input	5	object-50	pcp_vt	pcp_vt_stimulus	1	live_1_pcp_vt_size_10_set_0_120.png	live_1_pcp_vt_size_10_set_0_120	1	10	0	120				40	4	80	1			
133	1696863543078	09/10/2023 14:59:03	1696867143078	1	09/10/2023 16:59:03	142982	9	task-i1zc		32116403	623c7c7622e9904de7912e1ce4a7797f		complete		6524205dcaa30f89a314b945	computer	Desktop or Laptop	Windows 10	Chrome 117.0.0.0	1920x1080	1920x931			0	pcp_vt	13	Spreadsheet1	38	pcp_vt	fixation	gec9f5	1	continue		1968.6180000000168	1968.6180000000168	1968.6180000000168	1968.6180000000168	1968.6180000000168	1968.6180000000168	1	1968.6180000000168	0	0		Fixation Timing	Fixation	1	object-29	pcp_vt	pcp_vt_stimulus	1	live_2_pcp_vt_size_10_set_0_60.png	live_2_pcp_vt_size_10_set_0_60	2	10	0	60				45	2	65	1			
134	1696863552826	09/10/2023 14:59:12	1696867152826	1	09/10/2023 16:59:12	142982	9	task-i1zc		32116403	623c7c7622e9904de7912e1ce4a7797f		complete		6524205dcaa30f89a314b945	computer	Desktop or Laptop	Windows 10	Chrome 117.0.0.0	1920x1080	1920x931			0	pcp_vt	13	Spreadsheet1	38	pcp_vt	pcp_vt_stimulus	9rtpjb	2	continue		9749.075000047684	9743.148999999976	9749.075000047684	9749.075000047684	9743.148999999976	9749.075000047684	1	9749.075000047684	0	0		Click To Continue	submit_button	4	object-49	pcp_vt	pcp_vt_stimulus	1	live_2_pcp_vt_size_10_set_0_60.png	live_2_pcp_vt_size_10_set_0_60	2	10	0	60				45	2	65	1			
135	1696863552826	09/10/2023 14:59:12	1696867152826	1	09/10/2023 16:59:12	142982	9	task-i1zc		32116403	623c7c7622e9904de7912e1ce4a7797f		complete		6524205dcaa30f89a314b945	computer	Desktop or Laptop	Windows 10	Chrome 117.0.0.0	1920x1080	1920x931			0	pcp_vt	13	Spreadsheet1	38	pcp_vt	pcp_vt_stimulus	9rtpjb	2	response	65	9042.459999999963	9743.148999999976	9749.274999976158	9042.459999999963	9743.148999999976	9749.274999976158	1	9042.459999999963	706.8149999761954	0	estimated_value_response	Number Entry	estimated_value_input	5	object-50	pcp_vt	pcp_vt_stimulus	1	live_2_pcp_vt_size_10_set_0_60.png	live_2_pcp_vt_size_10_set_0_60	2	10	0	60				45	2	65	1			
136	1696863554789	09/10/2023 14:59:14	1696867154789	1	09/10/2023 16:59:14	142982	9	task-i1zc		32116403	623c7c7622e9904de7912e1ce4a7797f		complete		6524205dcaa30f89a314b945	computer	Desktop or Laptop	Windows 10	Chrome 117.0.0.0	1920x1080	1920x931			0	pcp_vt	13	Spreadsheet1	39	pcp_vt	fixation	gec9f5	1	continue		1968.6319999999832	1968.6319999999832	1968.6319999999832	1968.6319999999832	1968.6319999999832	1968.6319999999832	1	1968.6319999999832	0	0		Fixation Timing	Fixation	1	object-29	pcp_vt	pcp_vt_stimulus	1	live_2_pcp_vt_size_10_set_0_240.png	live_2_pcp_vt_size_10_set_0_240	2	10	0	240				45	8	125	1			
137	1696863566621	09/10/2023 14:59:26	1696867166621	1	09/10/2023 16:59:26	142982	9	task-i1zc		32116403	623c7c7622e9904de7912e1ce4a7797f		complete		6524205dcaa30f89a314b945	computer	Desktop or Laptop	Windows 10	Chrome 117.0.0.0	1920x1080	1920x931			0	pcp_vt	13	Spreadsheet1	39	pcp_vt	pcp_vt_stimulus	9rtpjb	2	continue		11832.694000023883	11828.553000000073	11832.694000023883	11832.694000023883	11828.553000000073	11832.694000023883	1	11832.694000023883	0	0		Click To Continue	submit_button	4	object-49	pcp_vt	pcp_vt_stimulus	1	live_2_pcp_vt_size_10_set_0_240.png	live_2_pcp_vt_size_10_set_0_240	2	10	0	240				45	8	125	1			
138	1696863566622	09/10/2023 14:59:26	1696867166622	1	09/10/2023 16:59:26	142982	9	task-i1zc		32116403	623c7c7622e9904de7912e1ce4a7797f		complete		6524205dcaa30f89a314b945	computer	Desktop or Laptop	Windows 10	Chrome 117.0.0.0	1920x1080	1920x931			0	pcp_vt	13	Spreadsheet1	39	pcp_vt	pcp_vt_stimulus	9rtpjb	2	response	126	10810.898000000045	11828.553000000073	11833.694000023883	10810.898000000045	11828.553000000073	11833.694000023883	1	10810.898000000045	1022.7960000238381	0	estimated_value_response	Number Entry	estimated_value_input	5	object-50	pcp_vt	pcp_vt_stimulus	1	live_2_pcp_vt_size_10_set_0_240.png	live_2_pcp_vt_size_10_set_0_240	2	10	0	240				45	8	125	1			
139	1696863568586	09/10/2023 14:59:28	1696867168586	1	09/10/2023 16:59:28	142982	9	task-i1zc		32116403	623c7c7622e9904de7912e1ce4a7797f		complete		6524205dcaa30f89a314b945	computer	Desktop or Laptop	Windows 10	Chrome 117.0.0.0	1920x1080	1920x931			0	pcp_vt	13	Spreadsheet1	40	pcp_vt	fixation	gec9f5	1	continue		1968.655999999959	1968.655999999959	1968.655999999959	1968.655999999959	1968.655999999959	1968.655999999959	1	1968.655999999959	0	0		Fixation Timing	Fixation	1	object-29	pcp_vt	pcp_vt_stimulus	1	live_1_pcp_vt_size_20_set_0_60.png	live_1_pcp_vt_size_20_set_0_60	1	20	0	60				2	2	22	1			
140	1696863577388	09/10/2023 14:59:37	1696867177388	1	09/10/2023 16:59:37	142982	9	task-i1zc		32116403	623c7c7622e9904de7912e1ce4a7797f		complete		6524205dcaa30f89a314b945	computer	Desktop or Laptop	Windows 10	Chrome 117.0.0.0	1920x1080	1920x931			0	pcp_vt	13	Spreadsheet1	40	pcp_vt	pcp_vt_stimulus	9rtpjb	2	continue		8802.784999976167	8792.163000000059	8802.784999976167	8802.784999976167	8792.163000000059	8802.784999976167	1	8802.784999976167	0	0		Click To Continue	submit_button	4	object-49	pcp_vt	pcp_vt_stimulus	1	live_1_pcp_vt_size_20_set_0_60.png	live_1_pcp_vt_size_20_set_0_60	1	20	0	60				2	2	22	1			
141	1696863577389	09/10/2023 14:59:37	1696867177389	1	09/10/2023 16:59:37	142982	9	task-i1zc		32116403	623c7c7622e9904de7912e1ce4a7797f		complete		6524205dcaa30f89a314b945	computer	Desktop or Laptop	Windows 10	Chrome 117.0.0.0	1920x1080	1920x931			0	pcp_vt	13	Spreadsheet1	40	pcp_vt	pcp_vt_stimulus	9rtpjb	2	response	21	7874.60400000005	8792.163000000059	8804.184999952326	7874.60400000005	8792.163000000059	8804.184999952326	1	7874.60400000005	929.5809999522753	0	estimated_value_response	Number Entry	estimated_value_input	5	object-50	pcp_vt	pcp_vt_stimulus	1	live_1_pcp_vt_size_20_set_0_60.png	live_1_pcp_vt_size_20_set_0_60	1	20	0	60				2	2	22	1			
142	1696863579346	09/10/2023 14:59:39	1696867179346	1	09/10/2023 16:59:39	142982	9	task-i1zc		32116403	623c7c7622e9904de7912e1ce4a7797f		complete		6524205dcaa30f89a314b945	computer	Desktop or Laptop	Windows 10	Chrome 117.0.0.0	1920x1080	1920x931			0	pcp_vt	13	Spreadsheet1	41	pcp_vt	fixation	gec9f5	1	continue		1968.6639999999898	1968.6639999999898	1968.6639999999898	1968.6639999999898	1968.6639999999898	1968.6639999999898	1	1968.6639999999898	0	0		Fixation Timing	Fixation	1	object-29	pcp_vt	pcp_vt_stimulus	1	live_1_pcp_vt_size_10_set_0_480.png	live_1_pcp_vt_size_10_set_0_480	1	10	0	480				40	16	200	1			
143	1696863589630	09/10/2023 14:59:49	1696867189630	1	09/10/2023 16:59:49	142982	9	task-i1zc		32116403	623c7c7622e9904de7912e1ce4a7797f		complete		6524205dcaa30f89a314b945	computer	Desktop or Laptop	Windows 10	Chrome 117.0.0.0	1920x1080	1920x931			0	pcp_vt	13	Spreadsheet1	41	pcp_vt	pcp_vt_stimulus	9rtpjb	2	continue		10283.857999952277	10276.995999999926	10283.857999952277	10283.857999952277	10276.995999999926	10283.857999952277	1	10283.857999952277	0	0		Click To Continue	submit_button	4	object-49	pcp_vt	pcp_vt_stimulus	1	live_1_pcp_vt_size_10_set_0_480.png	live_1_pcp_vt_size_10_set_0_480	1	10	0	480				40	16	200	1			
144	1696863589632	09/10/2023 14:59:49	1696867189632	1	09/10/2023 16:59:49	142982	9	task-i1zc		32116403	623c7c7622e9904de7912e1ce4a7797f		complete		6524205dcaa30f89a314b945	computer	Desktop or Laptop	Windows 10	Chrome 117.0.0.0	1920x1080	1920x931			0	pcp_vt	13	Spreadsheet1	41	pcp_vt	pcp_vt_stimulus	9rtpjb	2	response	200	9309.355999999912	10276.995999999926	10285.758000047645	9309.355999999912	10276.995999999926	10285.758000047645	1	9309.355999999912	976.4020000477321	0	estimated_value_response	Number Entry	estimated_value_input	5	object-50	pcp_vt	pcp_vt_stimulus	1	live_1_pcp_vt_size_10_set_0_480.png	live_1_pcp_vt_size_10_set_0_480	1	10	0	480				40	16	200	1			
145	1696863591593	09/10/2023 14:59:51	1696867191593	1	09/10/2023 16:59:51	142982	9	task-i1zc		32116403	623c7c7622e9904de7912e1ce4a7797f		complete		6524205dcaa30f89a314b945	computer	Desktop or Laptop	Windows 10	Chrome 117.0.0.0	1920x1080	1920x931			0	pcp_vt	13	Spreadsheet1	42	pcp_vt	fixation	gec9f5	1	continue		1968.6290000000736	1968.6290000000736	1968.6290000000736	1968.6290000000736	1968.6290000000736	1968.6290000000736	1	1968.6290000000736	0	0		Fixation Timing	Fixation	1	object-29	pcp_vt	pcp_vt_stimulus	1	live_3_pcp_vt_size_20_set_0_120.png	live_3_pcp_vt_size_20_set_0_120	3	20	0	120				35	4	75	1			
146	1696863593051	09/10/2023 14:59:53	1696867193051	1	09/10/2023 16:59:53	142982	9	task-i1zc		32116403	623c7c7622e9904de7912e1ce4a7797f		complete		6524205dcaa30f89a314b945	computer	Desktop or Laptop	Windows 10	Chrome 117.0.0.0	1920x1080	1920x931			0	pcp_vt	13	Spreadsheet1	42	pcp_vt	pcp_vt_stimulus	9rtpjb	2	response		1459.0330000238027	1451.4409999999916	1459.0330000238027	1459.0330000238027	1451.4409999999916	1459.0330000238027	1	1459.0330000238027	0	0		Keyboard Response	estimated_value_input	5	object-50	pcp_vt	pcp_vt_stimulus	1	live_3_pcp_vt_size_20_set_0_120.png	live_3_pcp_vt_size_20_set_0_120	3	20	0	120				35	4	75	1			
147	1696863602687	09/10/2023 15:00:02	1696867202687	1	09/10/2023 17:00:02	142982	9	task-i1zc		32116403	623c7c7622e9904de7912e1ce4a7797f		complete		6524205dcaa30f89a314b945	computer	Desktop or Laptop	Windows 10	Chrome 117.0.0.0	1920x1080	1920x931			0	pcp_vt	13	Spreadsheet1	42	pcp_vt	pcp_vt_stimulus	9rtpjb	2	continue		11094.462999999872	11077.779999999912	11094.462999999872	11094.462999999872	11077.779999999912	11094.462999999872	1	11094.462999999872	0	0		Click To Continue	submit_button	4	object-49	pcp_vt	pcp_vt_stimulus	1	live_3_pcp_vt_size_20_set_0_120.png	live_3_pcp_vt_size_20_set_0_120	3	20	0	120				35	4	75	1			
148	1696863602689	09/10/2023 15:00:02	1696867202689	1	09/10/2023 17:00:02	142982	9	task-i1zc		32116403	623c7c7622e9904de7912e1ce4a7797f		complete		6524205dcaa30f89a314b945	computer	Desktop or Laptop	Windows 10	Chrome 117.0.0.0	1920x1080	1920x931			0	pcp_vt	13	Spreadsheet1	42	pcp_vt	pcp_vt_stimulus	9rtpjb	2	response	75	9759.790999999968	11077.779999999912	11094.462999999872	9759.790999999968	11077.779999999912	11094.462999999872	1	9759.790999999968	1334.671999999904	0	estimated_value_response	Number Entry	estimated_value_input	5	object-50	pcp_vt	pcp_vt_stimulus	1	live_3_pcp_vt_size_20_set_0_120.png	live_3_pcp_vt_size_20_set_0_120	3	20	0	120				35	4	75	1			
149	1696863604639	09/10/2023 15:00:04	1696867204639	1	09/10/2023 17:00:04	142982	9	task-i1zc		32116403	623c7c7622e9904de7912e1ce4a7797f		complete		6524205dcaa30f89a314b945	computer	Desktop or Laptop	Windows 10	Chrome 117.0.0.0	1920x1080	1920x931			0	pcp_vt	13	Spreadsheet1	43	pcp_vt	fixation	gec9f5	1	continue		1968.6310000000522	1968.6310000000522	1968.6310000000522	1968.6310000000522	1968.6310000000522	1968.6310000000522	1	1968.6310000000522	0	0		Fixation Timing	Fixation	1	object-29	pcp_vt	pcp_vt_stimulus	1	live_1_pcp_vt_size_20_set_0_120.png	live_1_pcp_vt_size_20_set_0_120	1	20	0	120				2	4	42	1			
150	1696863612778	09/10/2023 15:00:12	1696867212778	1	09/10/2023 17:00:12	142982	9	task-i1zc		32116403	623c7c7622e9904de7912e1ce4a7797f		complete		6524205dcaa30f89a314b945	computer	Desktop or Laptop	Windows 10	Chrome 117.0.0.0	1920x1080	1920x931			0	pcp_vt	13	Spreadsheet1	43	pcp_vt	pcp_vt_stimulus	9rtpjb	2	continue		8139.722000047681	8124.849999999977	8139.722000047681	8139.722000047681	8124.849999999977	8139.722000047681	1	8139.722000047681	0	0		Click To Continue	submit_button	4	object-49	pcp_vt	pcp_vt_stimulus	1	live_1_pcp_vt_size_20_set_0_120.png	live_1_pcp_vt_size_20_set_0_120	1	20	0	120				2	4	42	1			
151	1696863612780	09/10/2023 15:00:12	1696867212780	1	09/10/2023 17:00:12	142982	9	task-i1zc		32116403	623c7c7622e9904de7912e1ce4a7797f		complete		6524205dcaa30f89a314b945	computer	Desktop or Laptop	Windows 10	Chrome 117.0.0.0	1920x1080	1920x931			0	pcp_vt	13	Spreadsheet1	43	pcp_vt	pcp_vt_stimulus	9rtpjb	2	response	41	7324.052999999956	8124.849999999977	8141.521999999997	7324.052999999956	8124.849999999977	8141.521999999997	1	7324.052999999956	817.469000000041	0	estimated_value_response	Number Entry	estimated_value_input	5	object-50	pcp_vt	pcp_vt_stimulus	1	live_1_pcp_vt_size_20_set_0_120.png	live_1_pcp_vt_size_20_set_0_120	1	20	0	120				2	4	42	1			
152	1696863614732	09/10/2023 15:00:14	1696867214732	1	09/10/2023 17:00:14	142982	9	task-i1zc		32116403	623c7c7622e9904de7912e1ce4a7797f		complete		6524205dcaa30f89a314b945	computer	Desktop or Laptop	Windows 10	Chrome 117.0.0.0	1920x1080	1920x931			0	pcp_vt	13	Spreadsheet1	44	pcp_vt	fixation	gec9f5	1	continue		1968.6330000000307	1968.6330000000307	1968.6330000000307	1968.6330000000307	1968.6330000000307	1968.6330000000307	1	1968.6330000000307	0	0		Fixation Timing	Fixation	1	object-29	pcp_vt	pcp_vt_stimulus	1	live_1_pcp_vt_size_40_set_0_120.png	live_1_pcp_vt_size_40_set_0_120	1	40	0	120				30	4	70	1			
153	1696863622154	09/10/2023 15:00:22	1696867222154	1	09/10/2023 17:00:22	142982	9	task-i1zc		32116403	623c7c7622e9904de7912e1ce4a7797f		complete		6524205dcaa30f89a314b945	computer	Desktop or Laptop	Windows 10	Chrome 117.0.0.0	1920x1080	1920x931			0	pcp_vt	13	Spreadsheet1	44	pcp_vt	pcp_vt_stimulus	9rtpjb	2	continue		7422.2390000476735	7407.444999999949	7422.2390000476735	7422.2390000476735	7407.444999999949	7422.2390000476735	1	7422.2390000476735	0	0		Click To Continue	submit_button	4	object-49	pcp_vt	pcp_vt_stimulus	1	live_1_pcp_vt_size_40_set_0_120.png	live_1_pcp_vt_size_40_set_0_120	1	40	0	120				30	4	70	1			
154	1696863622154	09/10/2023 15:00:22	1696867222154	1	09/10/2023 17:00:22	142982	9	task-i1zc		32116403	623c7c7622e9904de7912e1ce4a7797f		complete		6524205dcaa30f89a314b945	computer	Desktop or Laptop	Windows 10	Chrome 117.0.0.0	1920x1080	1920x931			0	pcp_vt	13	Spreadsheet1	44	pcp_vt	pcp_vt_stimulus	9rtpjb	2	response	70	6456.513000000035	7407.444999999949	7422.53899999999	6456.513000000035	7407.444999999949	7422.53899999999	1	6456.513000000035	966.0259999999544	0	estimated_value_response	Number Entry	estimated_value_input	5	object-50	pcp_vt	pcp_vt_stimulus	1	live_1_pcp_vt_size_40_set_0_120.png	live_1_pcp_vt_size_40_set_0_120	1	40	0	120				30	4	70	1			
155	1696863624109	09/10/2023 15:00:24	1696867224109	1	09/10/2023 17:00:24	142982	9	task-i1zc		32116403	623c7c7622e9904de7912e1ce4a7797f		complete		6524205dcaa30f89a314b945	computer	Desktop or Laptop	Windows 10	Chrome 117.0.0.0	1920x1080	1920x931			0	pcp_vt	13	Spreadsheet1	45	pcp_vt	fixation	gec9f5	1	continue		1968.6300000000047	1968.6300000000047	1968.6300000000047	1968.6300000000047	1968.6300000000047	1968.6300000000047	1	1968.6300000000047	0	0		Fixation Timing	Fixation	1	object-29	pcp_vt	pcp_vt_stimulus	1	live_3_pcp_vt_size_10_set_0_30.png	live_3_pcp_vt_size_10_set_0_30	3	10	0	30				47	1	57	1			
156	1696863625318	09/10/2023 15:00:25	1696867225318	1	09/10/2023 17:00:25	142982	9	task-i1zc		32116403	623c7c7622e9904de7912e1ce4a7797f		complete		6524205dcaa30f89a314b945	computer	Desktop or Laptop	Windows 10	Chrome 117.0.0.0	1920x1080	1920x931			0	pcp_vt	13	Spreadsheet1	45	pcp_vt	pcp_vt_stimulus	9rtpjb	2	response		1210.2639999523526	1201.2260000000242	1210.2639999523526	1210.2639999523526	1201.2260000000242	1210.2639999523526	1	1210.2639999523526	0	0		Keyboard Response	estimated_value_input	5	object-50	pcp_vt	pcp_vt_stimulus	1	live_3_pcp_vt_size_10_set_0_30.png	live_3_pcp_vt_size_10_set_0_30	3	10	0	30				47	1	57	1			
157	1696863632827	09/10/2023 15:00:32	1696867232827	1	09/10/2023 17:00:32	142982	9	task-i1zc		32116403	623c7c7622e9904de7912e1ce4a7797f		complete		6524205dcaa30f89a314b945	computer	Desktop or Laptop	Windows 10	Chrome 117.0.0.0	1920x1080	1920x931			0	pcp_vt	13	Spreadsheet1	45	pcp_vt	pcp_vt_stimulus	9rtpjb	2	continue		8719.564000023878	8708.766999999993	8719.564000023878	8719.564000023878	8708.766999999993	8719.564000023878	1	8719.564000023878	0	0		Click To Continue	submit_button	4	object-49	pcp_vt	pcp_vt_stimulus	1	live_3_pcp_vt_size_10_set_0_30.png	live_3_pcp_vt_size_10_set_0_30	3	10	0	30				47	1	57	1			
