Event Index	UTC Timestamp	UTC Date	Local Timestamp	Local Timezone	Local Date	Experiment ID	Experiment Version	Tree Node Key	Repeat Key	Schedule ID	Participant Public ID	Participant Starting Group	Participant Status	Participant Completion Code	Participant External Session ID	Participant Device Type	Participant Device	Participant OS	Participant Browser	Participant Monitor Size	Participant Viewport Size	Checkpoint	Task Name	Task Version	Spreadsheet	Trial Number	Display	Screen	Screen ID	Screen Counter	Response Type	Response	Onset Time	Clock Time	Reaction Time	Absolute Onset Time	Absolute Clock Time	Absolute Reaction Time	Correct	Response Onset	Response Duration	Proportion	Tag	Component Name	Object Name	Object Number	Object ID	Spreadsheet: display	Spreadsheet: randomise_trials	Spreadsheet: pcp	Spreadsheet: pcp_string	Spreadsheet: corr	Spreadsheet: sample_size	Spreadsheet: spacing	Spreadsheet: corr_scale	Spreadsheet: corr_estimated	Spreadsheet: attention_image	Spreadsheet: correct_attention_choice	Spreadsheet: text	Spreadsheet: screen	Spreadsheet: helptext	Spreadsheet: corr_correct_response	Manipulation: Spreadsheet
1	1686560748137	12/06/2023 09:05:48	1686564348137	1	12/06/2023 11:05:48	135554	9	task-3dzl		30006867	f959a861b33de106de11f88f1e3f5366		complete		6486edc3b7d7cf855a76868d	computer	Desktop or Laptop	Windows 10	Chrome 114.0.0.0	1920x1080	1920x969		corr_spacing	20	gorilla_corr_est						5	BEGIN							0																								
2	1686560751223	12/06/2023 09:05:51	1686564351223	1	12/06/2023 11:05:51	135554	9	task-3dzl		30006867	f959a861b33de106de11f88f1e3f5366		complete		6486edc3b7d7cf855a76868d	computer	Desktop or Laptop	Windows 10	Chrome 114.0.0.0	1920x1080	1920x969		corr_spacing	20	gorilla_corr_est	1	introduction	instructions	9k12za	1	continue		4562.60000000149	4558.322	4562.60000000149	4562.60000000149	4558.322	4562.60000000149	1	4562.60000000149	0	0		Click To Continue	Continue Button	2	object-21	introduction											"This evaluation is examining how linear relationships are perceived in parallel coordinates plots with varying layouts.
The next section contains 5 training questions. Your answers will not be recorded and you may take as much time as needed.
After the training section you will be given the opportunity to pause before the live questions begin.
Thanks for participating!
Please click ‘Continue’ to start."	introduction			
3	1686560758764	12/06/2023 09:05:58	1686564358764	1	12/06/2023 11:05:58	135554	9	task-3dzl		30006867	f959a861b33de106de11f88f1e3f5366		complete		6486edc3b7d7cf855a76868d	computer	Desktop or Laptop	Windows 10	Chrome 114.0.0.0	1920x1080	1920x969		corr_spacing	20	gorilla_corr_est	1	training	corr_est_examples	dfh83h	1	response	+	7544.678	7541.834999999999	7544.678	7544.678	7541.834999999999	7544.678	1	7544.678	0	0	estimated_corr	Click Response	+	8	object-95	training		example_pcp_corr_-0.905_size_40_120.png	pcp_corr_-0.905_size_40_120	-0.905	160	120	-3			---	"This is a training question.
Try to estimate the type and strength of the relationship between **V1 and V2**.
Click the green button that you think corresponds to the type and strength of the relationship. For example, ‘---’ represents a very strong negative relationship, ‘++’ represents a strong positive relationship, ‘+’ represents a moderate positive relationship."	corr_est_examples	"Look at the pattern formed by the lines between V1 and V2.
Remember:
- Positive relationships have many lines that are close to parallel.
- Negative relationships have many lines crossing to form an ‘X’ pattern.
- No relationship has lines with no pattern."	---	
4	1686560761607	12/06/2023 09:06:01	1686564361607	1	12/06/2023 11:06:01	135554	9	task-3dzl		30006867	f959a861b33de106de11f88f1e3f5366		complete		6486edc3b7d7cf855a76868d	computer	Desktop or Laptop	Windows 10	Chrome 114.0.0.0	1920x1080	1920x969		corr_spacing	20	gorilla_corr_est	1	training	corr_est_examples	dfh83h	1	response	---	10388.27800000149	10382.168	10388.27800000149	10388.27800000149	10382.168	10388.27800000149	1	10388.27800000149	0	0	estimated_corr	Click Response	---	4	object-91	training		example_pcp_corr_-0.905_size_40_120.png	pcp_corr_-0.905_size_40_120	-0.905	160	120	-3			---	"This is a training question.
Try to estimate the type and strength of the relationship between **V1 and V2**.
Click the green button that you think corresponds to the type and strength of the relationship. For example, ‘---’ represents a very strong negative relationship, ‘++’ represents a strong positive relationship, ‘+’ represents a moderate positive relationship."	corr_est_examples	"Look at the pattern formed by the lines between V1 and V2.
Remember:
- Positive relationships have many lines that are close to parallel.
- Negative relationships have many lines crossing to form an ‘X’ pattern.
- No relationship has lines with no pattern."	---	
5	1686560762809	12/06/2023 09:06:02	1686564362809	1	12/06/2023 11:06:02	135554	9	task-3dzl		30006867	f959a861b33de106de11f88f1e3f5366		complete		6486edc3b7d7cf855a76868d	computer	Desktop or Laptop	Windows 10	Chrome 114.0.0.0	1920x1080	1920x969		corr_spacing	20	gorilla_corr_est	1	training	corr_est_examples	dfh83h	1	continue		11589.27800000149	11583.619999999999	11589.27800000149	11589.27800000149	11583.619999999999	11589.27800000149	1	11589.27800000149	0	0		Click To Continue	Continue Button	15	object-112	training		example_pcp_corr_-0.905_size_40_120.png	pcp_corr_-0.905_size_40_120	-0.905	160	120	-3			---	"This is a training question.
Try to estimate the type and strength of the relationship between **V1 and V2**.
Click the green button that you think corresponds to the type and strength of the relationship. For example, ‘---’ represents a very strong negative relationship, ‘++’ represents a strong positive relationship, ‘+’ represents a moderate positive relationship."	corr_est_examples	"Look at the pattern formed by the lines between V1 and V2.
Remember:
- Positive relationships have many lines that are close to parallel.
- Negative relationships have many lines crossing to form an ‘X’ pattern.
- No relationship has lines with no pattern."	---	
6	1686560766436	12/06/2023 09:06:06	1686564366436	1	12/06/2023 11:06:06	135554	9	task-3dzl		30006867	f959a861b33de106de11f88f1e3f5366		complete		6486edc3b7d7cf855a76868d	computer	Desktop or Laptop	Windows 10	Chrome 114.0.0.0	1920x1080	1920x969		corr_spacing	20	gorilla_corr_est	2	training	corr_est_examples	dfh83h	1	response	0	3633.158000001491	3632.0070000000014	3633.158000001491	3633.158000001491	3632.0070000000014	3633.158000001491	1	3633.158000001491	0	0	estimated_corr	Click Response	0	7	object-94	training		example_pcp_corr_0_size_160_120.png	pcp_corr_0_size_160_120	0	160	120	0			0	"This is a training question.
Try to estimate the type and strength of the relationship between **V1 and V2**.
Click the green button that you think corresponds to the type and strength of the relationship. For example, ‘---’ represents a very strong negative relationship, ‘++’ represents a strong positive relationship, ‘+’ represents a moderate positive relationship."	corr_est_examples	"Look at the pattern formed by the lines between V1 and V2.
Remember:
- Positive relationships have many lines that are close to parallel.
- Negative relationships have many lines crossing to form an ‘X’ pattern.
- No relationship has lines with no pattern."	0	
7	1686560767492	12/06/2023 09:06:07	1686564367492	1	12/06/2023 11:06:07	135554	9	task-3dzl		30006867	f959a861b33de106de11f88f1e3f5366		complete		6486edc3b7d7cf855a76868d	computer	Desktop or Laptop	Windows 10	Chrome 114.0.0.0	1920x1080	1920x969		corr_spacing	20	gorilla_corr_est	2	training	corr_est_examples	dfh83h	1	continue		4688.857999997021	4687.607	4688.857999997021	4688.857999997021	4687.607	4688.857999997021	1	4688.857999997021	0	0		Click To Continue	Continue Button	15	object-112	training		example_pcp_corr_0_size_160_120.png	pcp_corr_0_size_160_120	0	160	120	0			0	"This is a training question.
Try to estimate the type and strength of the relationship between **V1 and V2**.
Click the green button that you think corresponds to the type and strength of the relationship. For example, ‘---’ represents a very strong negative relationship, ‘++’ represents a strong positive relationship, ‘+’ represents a moderate positive relationship."	corr_est_examples	"Look at the pattern formed by the lines between V1 and V2.
Remember:
- Positive relationships have many lines that are close to parallel.
- Negative relationships have many lines crossing to form an ‘X’ pattern.
- No relationship has lines with no pattern."	0	
8	1686560769112	12/06/2023 09:06:09	1686564369112	1	12/06/2023 11:06:09	135554	9	task-3dzl		30006867	f959a861b33de106de11f88f1e3f5366		complete		6486edc3b7d7cf855a76868d	computer	Desktop or Laptop	Windows 10	Chrome 114.0.0.0	1920x1080	1920x969		corr_spacing	20	gorilla_corr_est	3	training	corr_est_examples	dfh83h	1	response	+	1621.451000000001	1618.0900000000001	1621.451000000001	1621.451000000001	1618.0900000000001	1621.451000000001	1	1621.451000000001	0	0	estimated_corr	Click Response	+	8	object-95	training		example_pcp_corr_0.905_size_160_120.png	pcp_corr_0.905_size_160_120	0.905	160	120	3			+++	"This is a training question.
Try to estimate the type and strength of the relationship between **V1 and V2**.
Click the green button that you think corresponds to the type and strength of the relationship. For example, ‘---’ represents a very strong negative relationship, ‘++’ represents a strong positive relationship, ‘+’ represents a moderate positive relationship."	corr_est_examples	"Look at the pattern formed by the lines between V1 and V2.
Remember:
- Positive relationships have many lines that are close to parallel.
- Negative relationships have many lines crossing to form an ‘X’ pattern.
- No relationship has lines with no pattern."	+++	
9	1686560770544	12/06/2023 09:06:10	1686564370544	1	12/06/2023 11:06:10	135554	9	task-3dzl		30006867	f959a861b33de106de11f88f1e3f5366		complete		6486edc3b7d7cf855a76868d	computer	Desktop or Laptop	Windows 10	Chrome 114.0.0.0	1920x1080	1920x969		corr_spacing	20	gorilla_corr_est	3	training	corr_est_examples	dfh83h	1	response	+++	3052.951000000001	3048.688000000002	3052.951000000001	3052.951000000001	3048.688000000002	3052.951000000001	1	3052.951000000001	0	0	estimated_corr	Click Response	+++	10	object-97	training		example_pcp_corr_0.905_size_160_120.png	pcp_corr_0.905_size_160_120	0.905	160	120	3			+++	"This is a training question.
Try to estimate the type and strength of the relationship between **V1 and V2**.
Click the green button that you think corresponds to the type and strength of the relationship. For example, ‘---’ represents a very strong negative relationship, ‘++’ represents a strong positive relationship, ‘+’ represents a moderate positive relationship."	corr_est_examples	"Look at the pattern formed by the lines between V1 and V2.
Remember:
- Positive relationships have many lines that are close to parallel.
- Negative relationships have many lines crossing to form an ‘X’ pattern.
- No relationship has lines with no pattern."	+++	
10	1686560771378	12/06/2023 09:06:11	1686564371378	1	12/06/2023 11:06:11	135554	9	task-3dzl		30006867	f959a861b33de106de11f88f1e3f5366		complete		6486edc3b7d7cf855a76868d	computer	Desktop or Laptop	Windows 10	Chrome 114.0.0.0	1920x1080	1920x969		corr_spacing	20	gorilla_corr_est	3	training	corr_est_examples	dfh83h	1	continue		3886.951000000001	3882.089	3886.951000000001	3886.951000000001	3882.089	3886.951000000001	1	3886.951000000001	0	0		Click To Continue	Continue Button	15	object-112	training		example_pcp_corr_0.905_size_160_120.png	pcp_corr_0.905_size_160_120	0.905	160	120	3			+++	"This is a training question.
Try to estimate the type and strength of the relationship between **V1 and V2**.
Click the green button that you think corresponds to the type and strength of the relationship. For example, ‘---’ represents a very strong negative relationship, ‘++’ represents a strong positive relationship, ‘+’ represents a moderate positive relationship."	corr_est_examples	"Look at the pattern formed by the lines between V1 and V2.
Remember:
- Positive relationships have many lines that are close to parallel.
- Negative relationships have many lines crossing to form an ‘X’ pattern.
- No relationship has lines with no pattern."	+++	
11	1686560776097	12/06/2023 09:06:16	1686564376097	1	12/06/2023 11:06:16	135554	9	task-3dzl		30006867	f959a861b33de106de11f88f1e3f5366		complete		6486edc3b7d7cf855a76868d	computer	Desktop or Laptop	Windows 10	Chrome 114.0.0.0	1920x1080	1920x969		corr_spacing	20	gorilla_corr_est	4	training	corr_est_examples	dfh83h	1	response	--	4724.562000002981	4722.264999999999	4724.562000002981	4724.562000002981	4722.264999999999	4724.562000002981	1	4724.562000002981	0	0	estimated_corr	Click Response	--	5	object-92	training		example_pcp_corr_0.762_size_40_120.png	pcp_corr_0.762_size_40_120	0.762	40	120	3			++	"This is a training question.
Try to estimate the type and strength of the relationship between **V1 and V2**.
Click the green button that you think corresponds to the type and strength of the relationship. For example, ‘---’ represents a very strong negative relationship, ‘++’ represents a strong positive relationship, ‘+’ represents a moderate positive relationship."	corr_est_examples	"Look at the pattern formed by the lines between V1 and V2.
Remember:
- Positive relationships have many lines that are close to parallel.
- Negative relationships have many lines crossing to form an ‘X’ pattern.
- No relationship has lines with no pattern."	++	
12	1686560778216	12/06/2023 09:06:18	1686564378216	1	12/06/2023 11:06:18	135554	9	task-3dzl		30006867	f959a861b33de106de11f88f1e3f5366		complete		6486edc3b7d7cf855a76868d	computer	Desktop or Laptop	Windows 10	Chrome 114.0.0.0	1920x1080	1920x969		corr_spacing	20	gorilla_corr_est	4	training	corr_est_examples	dfh83h	1	response	++	6843.661999997021	6840.379000000001	6843.661999997021	6843.661999997021	6840.379000000001	6843.661999997021	1	6843.661999997021	0	0	estimated_corr	Click Response	++	9	object-96	training		example_pcp_corr_0.762_size_40_120.png	pcp_corr_0.762_size_40_120	0.762	40	120	3			++	"This is a training question.
Try to estimate the type and strength of the relationship between **V1 and V2**.
Click the green button that you think corresponds to the type and strength of the relationship. For example, ‘---’ represents a very strong negative relationship, ‘++’ represents a strong positive relationship, ‘+’ represents a moderate positive relationship."	corr_est_examples	"Look at the pattern formed by the lines between V1 and V2.
Remember:
- Positive relationships have many lines that are close to parallel.
- Negative relationships have many lines crossing to form an ‘X’ pattern.
- No relationship has lines with no pattern."	++	
13	1686560779108	12/06/2023 09:06:19	1686564379108	1	12/06/2023 11:06:19	135554	9	task-3dzl		30006867	f959a861b33de106de11f88f1e3f5366		complete		6486edc3b7d7cf855a76868d	computer	Desktop or Laptop	Windows 10	Chrome 114.0.0.0	1920x1080	1920x969		corr_spacing	20	gorilla_corr_est	4	training	corr_est_examples	dfh83h	1	continue		7735.661999997021	7729.308000000001	7735.661999997021	7735.661999997021	7729.308000000001	7735.661999997021	1	7735.661999997021	0	0		Click To Continue	Continue Button	15	object-112	training		example_pcp_corr_0.762_size_40_120.png	pcp_corr_0.762_size_40_120	0.762	40	120	3			++	"This is a training question.
Try to estimate the type and strength of the relationship between **V1 and V2**.
Click the green button that you think corresponds to the type and strength of the relationship. For example, ‘---’ represents a very strong negative relationship, ‘++’ represents a strong positive relationship, ‘+’ represents a moderate positive relationship."	corr_est_examples	"Look at the pattern formed by the lines between V1 and V2.
Remember:
- Positive relationships have many lines that are close to parallel.
- Negative relationships have many lines crossing to form an ‘X’ pattern.
- No relationship has lines with no pattern."	++	
14	1686560786188	12/06/2023 09:06:26	1686564386188	1	12/06/2023 11:06:26	135554	9	task-3dzl		30006867	f959a861b33de106de11f88f1e3f5366		complete		6486edc3b7d7cf855a76868d	computer	Desktop or Laptop	Windows 10	Chrome 114.0.0.0	1920x1080	1920x969		corr_spacing	20	gorilla_corr_est	5	training	corr_est_examples	dfh83h	1	response	-	7086.554	7083.596000000001	7086.554	7086.554	7083.596000000001	7086.554	1	7086.554	0	0	estimated_corr	Click Response	-	6	object-93	training		example_pcp_corr_-0.462_size_40_120.png	pcp_corr_-0.462_size_40_120	-0.462	40	120	3			-	"This is a training question.
Try to estimate the type and strength of the relationship between **V1 and V2**.
Click the green button that you think corresponds to the type and strength of the relationship. For example, ‘---’ represents a very strong negative relationship, ‘++’ represents a strong positive relationship, ‘+’ represents a moderate positive relationship."	corr_est_examples	"Look at the pattern formed by the lines between V1 and V2.
Remember:
- Positive relationships have many lines that are close to parallel.
- Negative relationships have many lines crossing to form an ‘X’ pattern.
- No relationship has lines with no pattern."	-	
15	1686560786667	12/06/2023 09:06:26	1686564386667	1	12/06/2023 11:06:26	135554	9	task-3dzl		30006867	f959a861b33de106de11f88f1e3f5366		complete		6486edc3b7d7cf855a76868d	computer	Desktop or Laptop	Windows 10	Chrome 114.0.0.0	1920x1080	1920x969		corr_spacing	20	gorilla_corr_est	5	training	corr_est_examples	dfh83h	1	continue		7564.85399999702	7562.721000000001	7564.85399999702	7564.85399999702	7562.721000000001	7564.85399999702	1	7564.85399999702	0	0		Click To Continue	Continue Button	15	object-112	training		example_pcp_corr_-0.462_size_40_120.png	pcp_corr_-0.462_size_40_120	-0.462	40	120	3			-	"This is a training question.
Try to estimate the type and strength of the relationship between **V1 and V2**.
Click the green button that you think corresponds to the type and strength of the relationship. For example, ‘---’ represents a very strong negative relationship, ‘++’ represents a strong positive relationship, ‘+’ represents a moderate positive relationship."	corr_est_examples	"Look at the pattern formed by the lines between V1 and V2.
Remember:
- Positive relationships have many lines that are close to parallel.
- Negative relationships have many lines crossing to form an ‘X’ pattern.
- No relationship has lines with no pattern."	-	
16	1686560788030	12/06/2023 09:06:28	1686564388030	1	12/06/2023 11:06:28	135554	9	task-3dzl		30006867	f959a861b33de106de11f88f1e3f5366		complete		6486edc3b7d7cf855a76868d	computer	Desktop or Laptop	Windows 10	Chrome 114.0.0.0	1920x1080	1920x969		corr_spacing	20	gorilla_corr_est	1	begin_trial	begin	dygxt8	1	continue		1365.7329999985086	1361.1359999999986	1365.7329999985086	1365.7329999985086	1361.1359999999986	1365.7329999985086	1	1365.7329999985086	0	0		Click To Continue	Continue Button	2	object-102	begin_trial											"# Start of live questions
Click 'Continue' to begin the live test. Your answers will be recorded. Please try to complete all the questions without taking a break. The test should take no more than 10 minutes to complete."	begin			
17	1686560790152	12/06/2023 09:06:30	1686564390152	1	12/06/2023 11:06:30	135554	9	task-3dzl		30006867	f959a861b33de106de11f88f1e3f5366		complete		6486edc3b7d7cf855a76868d	computer	Desktop or Laptop	Windows 10	Chrome 114.0.0.0	1920x1080	1920x969		corr_spacing	20	gorilla_corr_est	1	corr_est	fixation	uey5yj	1	continue		2124.9890000000014	2124.9890000000014	2124.9890000000014	2124.9890000000014	2124.9890000000014	2124.9890000000014	1	2124.9890000000014	0	0		Fixation Timing	Fixation	1	object-16	corr_est	1	pcp_corr_-0.462_size_160_120.png	pcp_corr_-0.462_size_160_120	-0.462	160	120	-1					corr_est_stimulus			
18	1686560793527	12/06/2023 09:06:33	1686564393527	1	12/06/2023 11:06:33	135554	9	task-3dzl		30006867	f959a861b33de106de11f88f1e3f5366		complete		6486edc3b7d7cf855a76868d	computer	Desktop or Laptop	Windows 10	Chrome 114.0.0.0	1920x1080	1920x969		corr_spacing	20	gorilla_corr_est	1	corr_est	corr_est_stimulus	ws1eyw	2	tooEarly	-2	0	0	0	3375.1530000000057	3368.207000000002	3375.1530000000057	1	0	0	0	estimated_corr	Click Response	--	5	object-24	corr_est	1	pcp_corr_-0.462_size_160_120.png	pcp_corr_-0.462_size_160_120	-0.462	160	120	-1					corr_est_stimulus			
19	1686560793527	12/06/2023 09:06:33	1686564393527	1	12/06/2023 11:06:33	135554	9	task-3dzl		30006867	f959a861b33de106de11f88f1e3f5366		complete		6486edc3b7d7cf855a76868d	computer	Desktop or Laptop	Windows 10	Chrome 114.0.0.0	1920x1080	1920x969		corr_spacing	20	gorilla_corr_est	1	corr_est	corr_est_stimulus	ws1eyw	2	continue		0	0	0	3375.1530000000057	3368.207000000002	3375.1530000000057	1	0	0	0		Click To Continue	--	5	object-24	corr_est	1	pcp_corr_-0.462_size_160_120.png	pcp_corr_-0.462_size_160_120	-0.462	160	120	-1					corr_est_stimulus			
20	1686560795505	12/06/2023 09:06:35	1686564395505	1	12/06/2023 11:06:35	135554	9	task-3dzl		30006867	f959a861b33de106de11f88f1e3f5366		complete		6486edc3b7d7cf855a76868d	computer	Desktop or Laptop	Windows 10	Chrome 114.0.0.0	1920x1080	1920x969		corr_spacing	20	gorilla_corr_est	2	corr_est	fixation	uey5yj	1	continue		1986.1419999999998	1986.1419999999998	1986.1419999999998	1986.1419999999998	1986.1419999999998	1986.1419999999998	1	1986.1419999999998	0	0		Fixation Timing	Fixation	1	object-16	corr_est	1	pcp_corr_0.462_size_160_120.png	pcp_corr_0.462_size_160_120	0.462	160	120	1					corr_est_stimulus			
21	1686560797242	12/06/2023 09:06:37	1686564397242	1	12/06/2023 11:06:37	135554	9	task-3dzl		30006867	f959a861b33de106de11f88f1e3f5366		complete		6486edc3b7d7cf855a76868d	computer	Desktop or Laptop	Windows 10	Chrome 114.0.0.0	1920x1080	1920x969		corr_spacing	20	gorilla_corr_est	2	corr_est	corr_est_stimulus	ws1eyw	2	tooEarly	1	0	0	0	1736.1569999999992	1729.2609999999986	1736.1569999999992	1	0	0	0	estimated_corr	Click Response	+	8	object-27	corr_est	1	pcp_corr_0.462_size_160_120.png	pcp_corr_0.462_size_160_120	0.462	160	120	1					corr_est_stimulus			
22	1686560797245	12/06/2023 09:06:37	1686564397245	1	12/06/2023 11:06:37	135554	9	task-3dzl		30006867	f959a861b33de106de11f88f1e3f5366		complete		6486edc3b7d7cf855a76868d	computer	Desktop or Laptop	Windows 10	Chrome 114.0.0.0	1920x1080	1920x969		corr_spacing	20	gorilla_corr_est	2	corr_est	corr_est_stimulus	ws1eyw	2	continue		0	0	0	1736.1569999999992	1729.2609999999986	1736.1569999999992	1	0	0	0		Click To Continue	+	8	object-27	corr_est	1	pcp_corr_0.462_size_160_120.png	pcp_corr_0.462_size_160_120	0.462	160	120	1					corr_est_stimulus			
23	1686560799221	12/06/2023 09:06:39	1686564399221	1	12/06/2023 11:06:39	135554	9	task-3dzl		30006867	f959a861b33de106de11f88f1e3f5366		complete		6486edc3b7d7cf855a76868d	computer	Desktop or Laptop	Windows 10	Chrome 114.0.0.0	1920x1080	1920x969		corr_spacing	20	gorilla_corr_est	3	corr_est	fixation	uey5yj	1	continue		1986.117999999995	1986.117999999995	1986.117999999995	1986.117999999995	1986.117999999995	1986.117999999995	1	1986.117999999995	0	0		Fixation Timing	Fixation	1	object-16	corr_est	1	pcp_corr_-0.462_size_160_30.png	pcp_corr_-0.462_size_160_30	-0.462	160	30	-1					corr_est_stimulus			
24	1686560803300	12/06/2023 09:06:43	1686564403300	1	12/06/2023 11:06:43	135554	9	task-3dzl		30006867	f959a861b33de106de11f88f1e3f5366		complete		6486edc3b7d7cf855a76868d	computer	Desktop or Laptop	Windows 10	Chrome 114.0.0.0	1920x1080	1920x969		corr_spacing	20	gorilla_corr_est	3	corr_est	corr_est_stimulus	ws1eyw	2	tooEarly	2	0	0	0	4078.980000000003	4076.618000000002	4078.980000000003	1	0	0	0	estimated_corr	Click Response	++	9	object-28	corr_est	1	pcp_corr_-0.462_size_160_30.png	pcp_corr_-0.462_size_160_30	-0.462	160	30	-1					corr_est_stimulus			
25	1686560803300	12/06/2023 09:06:43	1686564403300	1	12/06/2023 11:06:43	135554	9	task-3dzl		30006867	f959a861b33de106de11f88f1e3f5366		complete		6486edc3b7d7cf855a76868d	computer	Desktop or Laptop	Windows 10	Chrome 114.0.0.0	1920x1080	1920x969		corr_spacing	20	gorilla_corr_est	3	corr_est	corr_est_stimulus	ws1eyw	2	continue		0	0	0	4079.279999997023	4076.618000000002	4079.279999997023	1	0	0	0		Click To Continue	++	9	object-28	corr_est	1	pcp_corr_-0.462_size_160_30.png	pcp_corr_-0.462_size_160_30	-0.462	160	30	-1					corr_est_stimulus			
26	1686560805283	12/06/2023 09:06:45	1686564405283	1	12/06/2023 11:06:45	135554	9	task-3dzl		30006867	f959a861b33de106de11f88f1e3f5366		complete		6486edc3b7d7cf855a76868d	computer	Desktop or Laptop	Windows 10	Chrome 114.0.0.0	1920x1080	1920x969		corr_spacing	20	gorilla_corr_est	4	corr_est	fixation	uey5yj	1	continue		1986.0520000000033	1986.0520000000033	1986.0520000000033	1986.0520000000033	1986.0520000000033	1986.0520000000033	1	1986.0520000000033	0	0		Fixation Timing	Fixation	1	object-16	corr_est	1	pcp_corr_0.462_size_160_30.png	pcp_corr_0.462_size_160_30	0.462	160	30	1					corr_est_stimulus			
27	1686560808108	12/06/2023 09:06:48	1686564408108	1	12/06/2023 11:06:48	135554	9	task-3dzl		30006867	f959a861b33de106de11f88f1e3f5366		complete		6486edc3b7d7cf855a76868d	computer	Desktop or Laptop	Windows 10	Chrome 114.0.0.0	1920x1080	1920x969		corr_spacing	20	gorilla_corr_est	4	corr_est	corr_est_stimulus	ws1eyw	2	tooEarly	-1	0	0	0	2824.410000001488	2819.5279999999984	2824.410000001488	1	0	0	0	estimated_corr	Click Response	-	6	object-25	corr_est	1	pcp_corr_0.462_size_160_30.png	pcp_corr_0.462_size_160_30	0.462	160	30	1					corr_est_stimulus			
28	1686560808110	12/06/2023 09:06:48	1686564408110	1	12/06/2023 11:06:48	135554	9	task-3dzl		30006867	f959a861b33de106de11f88f1e3f5366		complete		6486edc3b7d7cf855a76868d	computer	Desktop or Laptop	Windows 10	Chrome 114.0.0.0	1920x1080	1920x969		corr_spacing	20	gorilla_corr_est	4	corr_est	corr_est_stimulus	ws1eyw	2	continue		0	0	0	2826.385000000002	2819.5279999999984	2826.385000000002	1	0	0	0		Click To Continue	-	6	object-25	corr_est	1	pcp_corr_0.462_size_160_30.png	pcp_corr_0.462_size_160_30	0.462	160	30	1					corr_est_stimulus			
29	1686560810089	12/06/2023 09:06:50	1686564410089	1	12/06/2023 11:06:50	135554	9	task-3dzl		30006867	f959a861b33de106de11f88f1e3f5366		complete		6486edc3b7d7cf855a76868d	computer	Desktop or Laptop	Windows 10	Chrome 114.0.0.0	1920x1080	1920x969		corr_spacing	20	gorilla_corr_est	5	corr_est	fixation	uey5yj	1	continue		1986.2149999999965	1986.2149999999965	1986.2149999999965	1986.2149999999965	1986.2149999999965	1986.2149999999965	1	1986.2149999999965	0	0		Fixation Timing	Fixation	1	object-16	corr_est	1	pcp_corr_-0.462_size_160_480.png	pcp_corr_-0.462_size_160_480	-0.462	160	480	-1					corr_est_stimulus			
30	1686560814691	12/06/2023 09:06:54	1686564414691	1	12/06/2023 11:06:54	135554	9	task-3dzl		30006867	f959a861b33de106de11f88f1e3f5366		complete		6486edc3b7d7cf855a76868d	computer	Desktop or Laptop	Windows 10	Chrome 114.0.0.0	1920x1080	1920x969		corr_spacing	20	gorilla_corr_est	5	corr_est	corr_est_stimulus	ws1eyw	2	tooEarly	2	0	0	0	4602.067000000003	4597.264000000003	4602.067000000003	1	0	0	0	estimated_corr	Click Response	++	9	object-28	corr_est	1	pcp_corr_-0.462_size_160_480.png	pcp_corr_-0.462_size_160_480	-0.462	160	480	-1					corr_est_stimulus			
31	1686560814691	12/06/2023 09:06:54	1686564414691	1	12/06/2023 11:06:54	135554	9	task-3dzl		30006867	f959a861b33de106de11f88f1e3f5366		complete		6486edc3b7d7cf855a76868d	computer	Desktop or Laptop	Windows 10	Chrome 114.0.0.0	1920x1080	1920x969		corr_spacing	20	gorilla_corr_est	5	corr_est	corr_est_stimulus	ws1eyw	2	continue		0	0	0	4602.3669999970225	4597.264000000003	4602.3669999970225	1	0	0	0		Click To Continue	++	9	object-28	corr_est	1	pcp_corr_-0.462_size_160_480.png	pcp_corr_-0.462_size_160_480	-0.462	160	480	-1					corr_est_stimulus			
32	1686560816673	12/06/2023 09:06:56	1686564416673	1	12/06/2023 11:06:56	135554	9	task-3dzl		30006867	f959a861b33de106de11f88f1e3f5366		complete		6486edc3b7d7cf855a76868d	computer	Desktop or Laptop	Windows 10	Chrome 114.0.0.0	1920x1080	1920x969		corr_spacing	20	gorilla_corr_est	6	corr_est	fixation	uey5yj	1	continue		1986.1469999999972	1986.1469999999972	1986.1469999999972	1986.1469999999972	1986.1469999999972	1986.1469999999972	1	1986.1469999999972	0	0		Fixation Timing	Fixation	1	object-16	corr_est	1	pcp_corr_0.462_size_160_480.png	pcp_corr_0.462_size_160_480	0.462	160	480	1					corr_est_stimulus			
33	1686560820113	12/06/2023 09:07:00	1686564420113	1	12/06/2023 11:07:00	135554	9	task-3dzl		30006867	f959a861b33de106de11f88f1e3f5366		complete		6486edc3b7d7cf855a76868d	computer	Desktop or Laptop	Windows 10	Chrome 114.0.0.0	1920x1080	1920x969		corr_spacing	20	gorilla_corr_est	6	corr_est	corr_est_stimulus	ws1eyw	2	tooEarly	0	0	0	0	3440.1560000000027	3437.576000000001	3440.1560000000027	1	0	0	0	estimated_corr	Click Response	0	7	object-26	corr_est	1	pcp_corr_0.462_size_160_480.png	pcp_corr_0.462_size_160_480	0.462	160	480	1					corr_est_stimulus			
34	1686560820114	12/06/2023 09:07:00	1686564420114	1	12/06/2023 11:07:00	135554	9	task-3dzl		30006867	f959a861b33de106de11f88f1e3f5366		complete		6486edc3b7d7cf855a76868d	computer	Desktop or Laptop	Windows 10	Chrome 114.0.0.0	1920x1080	1920x969		corr_spacing	20	gorilla_corr_est	6	corr_est	corr_est_stimulus	ws1eyw	2	continue		0	0	0	3442.0559999985126	3437.576000000001	3442.0559999985126	1	0	0	0		Click To Continue	0	7	object-26	corr_est	1	pcp_corr_0.462_size_160_480.png	pcp_corr_0.462_size_160_480	0.462	160	480	1					corr_est_stimulus			
35	1686560822096	12/06/2023 09:07:02	1686564422096	1	12/06/2023 11:07:02	135554	9	task-3dzl		30006867	f959a861b33de106de11f88f1e3f5366		complete		6486edc3b7d7cf855a76868d	computer	Desktop or Laptop	Windows 10	Chrome 114.0.0.0	1920x1080	1920x969		corr_spacing	20	gorilla_corr_est	7	corr_est	fixation	uey5yj	1	continue		1986.2100000000064	1986.2100000000064	1986.2100000000064	1986.2100000000064	1986.2100000000064	1986.2100000000064	1	1986.2100000000064	0	0		Fixation Timing	Fixation	1	object-16	corr_est	1	pcp_corr_-0.462_size_40_120.png	pcp_corr_-0.462_size_40_120	-0.462	40	120	-1					corr_est_stimulus			
36	1686560823834	12/06/2023 09:07:03	1686564423834	1	12/06/2023 11:07:03	135554	9	task-3dzl		30006867	f959a861b33de106de11f88f1e3f5366		complete		6486edc3b7d7cf855a76868d	computer	Desktop or Laptop	Windows 10	Chrome 114.0.0.0	1920x1080	1920x969		corr_spacing	20	gorilla_corr_est	7	corr_est	corr_est_stimulus	ws1eyw	2	tooEarly	-2	0	0	0	1738.2699999985052	1736.1349999999948	1738.2699999985052	1	0	0	0	estimated_corr	Click Response	--	5	object-24	corr_est	1	pcp_corr_-0.462_size_40_120.png	pcp_corr_-0.462_size_40_120	-0.462	40	120	-1					corr_est_stimulus			
37	1686560823835	12/06/2023 09:07:03	1686564423835	1	12/06/2023 11:07:03	135554	9	task-3dzl		30006867	f959a861b33de106de11f88f1e3f5366		complete		6486edc3b7d7cf855a76868d	computer	Desktop or Laptop	Windows 10	Chrome 114.0.0.0	1920x1080	1920x969		corr_spacing	20	gorilla_corr_est	7	corr_est	corr_est_stimulus	ws1eyw	2	continue		0	0	0	1738.4700000014855	1736.1349999999948	1738.4700000014855	1	0	0	0		Click To Continue	--	5	object-24	corr_est	1	pcp_corr_-0.462_size_40_120.png	pcp_corr_-0.462_size_40_120	-0.462	40	120	-1					corr_est_stimulus			
38	1686560825819	12/06/2023 09:07:05	1686564425819	1	12/06/2023 11:07:05	135554	9	task-3dzl		30006867	f959a861b33de106de11f88f1e3f5366		complete		6486edc3b7d7cf855a76868d	computer	Desktop or Laptop	Windows 10	Chrome 114.0.0.0	1920x1080	1920x969		corr_spacing	20	gorilla_corr_est	8	corr_est	fixation	uey5yj	1	continue		1986.2550000000047	1986.2550000000047	1986.2550000000047	1986.2550000000047	1986.2550000000047	1986.2550000000047	1	1986.2550000000047	0	0		Fixation Timing	Fixation	1	object-16	corr_est	1	pcp_corr_0.462_size_40_120.png	pcp_corr_0.462_size_40_120	0.462	40	120	1					corr_est_stimulus			
39	1686560827845	12/06/2023 09:07:07	1686564427845	1	12/06/2023 11:07:07	135554	9	task-3dzl		30006867	f959a861b33de106de11f88f1e3f5366		complete		6486edc3b7d7cf855a76868d	computer	Desktop or Laptop	Windows 10	Chrome 114.0.0.0	1920x1080	1920x969		corr_spacing	20	gorilla_corr_est	8	corr_est	corr_est_stimulus	ws1eyw	2	tooEarly	-3	0	0	0	2026.580000001486	2020.7939999999944	2026.580000001486	1	0	0	0	estimated_corr	Click Response	---	4	object-23	corr_est	1	pcp_corr_0.462_size_40_120.png	pcp_corr_0.462_size_40_120	0.462	40	120	1					corr_est_stimulus			
40	1686560827845	12/06/2023 09:07:07	1686564427845	1	12/06/2023 11:07:07	135554	9	task-3dzl		30006867	f959a861b33de106de11f88f1e3f5366		complete		6486edc3b7d7cf855a76868d	computer	Desktop or Laptop	Windows 10	Chrome 114.0.0.0	1920x1080	1920x969		corr_spacing	20	gorilla_corr_est	8	corr_est	corr_est_stimulus	ws1eyw	2	continue		0	0	0	2026.8799999985058	2020.7939999999944	2026.8799999985058	1	0	0	0		Click To Continue	---	4	object-23	corr_est	1	pcp_corr_0.462_size_40_120.png	pcp_corr_0.462_size_40_120	0.462	40	120	1					corr_est_stimulus			
41	1686560830372	12/06/2023 09:07:10	1686564430372	1	12/06/2023 11:07:10	135554	9	task-3dzl		30006867	f959a861b33de106de11f88f1e3f5366		complete		6486edc3b7d7cf855a76868d	computer	Desktop or Laptop	Windows 10	Chrome 114.0.0.0	1920x1080	1920x969		corr_spacing	20	gorilla_corr_est	9	corr_est	fixation	uey5yj	1	continue		2527.822	2527.822	2527.822	2527.822	2527.822	2527.822	1	2527.822	0	0		Fixation Timing	Fixation	1	object-16	corr_est	1	pcp_corr_-0.462_size_40_30.png	pcp_corr_-0.462_size_40_30	-0.462	40	30	-1					corr_est_stimulus			
42	1686560832180	12/06/2023 09:07:12	1686564432180	1	12/06/2023 11:07:12	135554	9	task-3dzl		30006867	f959a861b33de106de11f88f1e3f5366		complete		6486edc3b7d7cf855a76868d	computer	Desktop or Laptop	Windows 10	Chrome 114.0.0.0	1920x1080	1920x969		corr_spacing	20	gorilla_corr_est	9	corr_est	corr_est_stimulus	ws1eyw	2	tooEarly	1	0	0	0	1812.6040000000066	1805.6370000000024	1812.6040000000066	1	0	0	0	estimated_corr	Click Response	+	8	object-27	corr_est	1	pcp_corr_-0.462_size_40_30.png	pcp_corr_-0.462_size_40_30	-0.462	40	30	-1					corr_est_stimulus			
43	1686560832180	12/06/2023 09:07:12	1686564432180	1	12/06/2023 11:07:12	135554	9	task-3dzl		30006867	f959a861b33de106de11f88f1e3f5366		complete		6486edc3b7d7cf855a76868d	computer	Desktop or Laptop	Windows 10	Chrome 114.0.0.0	1920x1080	1920x969		corr_spacing	20	gorilla_corr_est	9	corr_est	corr_est_stimulus	ws1eyw	2	continue		0	0	0	1812.6040000000066	1805.6370000000024	1812.6040000000066	1	0	0	0		Click To Continue	+	8	object-27	corr_est	1	pcp_corr_-0.462_size_40_30.png	pcp_corr_-0.462_size_40_30	-0.462	40	30	-1					corr_est_stimulus			
44	1686560834159	12/06/2023 09:07:14	1686564434159	1	12/06/2023 11:07:14	135554	9	task-3dzl		30006867	f959a861b33de106de11f88f1e3f5366		complete		6486edc3b7d7cf855a76868d	computer	Desktop or Laptop	Windows 10	Chrome 114.0.0.0	1920x1080	1920x969		corr_spacing	20	gorilla_corr_est	10	corr_est	fixation	uey5yj	1	continue		1986.1469999999972	1986.1469999999972	1986.1469999999972	1986.1469999999972	1986.1469999999972	1986.1469999999972	1	1986.1469999999972	0	0		Fixation Timing	Fixation	1	object-16	corr_est	1	pcp_corr_0.462_size_40_30.png	pcp_corr_0.462_size_40_30	0.462	40	30	1					corr_est_stimulus			
45	1686560836441	12/06/2023 09:07:16	1686564436441	1	12/06/2023 11:07:16	135554	9	task-3dzl		30006867	f959a861b33de106de11f88f1e3f5366		complete		6486edc3b7d7cf855a76868d	computer	Desktop or Laptop	Windows 10	Chrome 114.0.0.0	1920x1080	1920x969		corr_spacing	20	gorilla_corr_est	10	corr_est	corr_est_stimulus	ws1eyw	2	tooEarly	1	0	0	0	2282.280000002982	2277.8310000000056	2282.280000002982	1	0	0	0	estimated_corr	Click Response	+	8	object-27	corr_est	1	pcp_corr_0.462_size_40_30.png	pcp_corr_0.462_size_40_30	0.462	40	30	1					corr_est_stimulus			
46	1686560836441	12/06/2023 09:07:16	1686564436441	1	12/06/2023 11:07:16	135554	9	task-3dzl		30006867	f959a861b33de106de11f88f1e3f5366		complete		6486edc3b7d7cf855a76868d	computer	Desktop or Laptop	Windows 10	Chrome 114.0.0.0	1920x1080	1920x969		corr_spacing	20	gorilla_corr_est	10	corr_est	corr_est_stimulus	ws1eyw	2	continue		0	0	0	2282.3799999970215	2277.8310000000056	2282.3799999970215	1	0	0	0		Click To Continue	+	8	object-27	corr_est	1	pcp_corr_0.462_size_40_30.png	pcp_corr_0.462_size_40_30	0.462	40	30	1					corr_est_stimulus			
47	1686560838423	12/06/2023 09:07:18	1686564438423	1	12/06/2023 11:07:18	135554	9	task-3dzl		30006867	f959a861b33de106de11f88f1e3f5366		complete		6486edc3b7d7cf855a76868d	computer	Desktop or Laptop	Windows 10	Chrome 114.0.0.0	1920x1080	1920x969		corr_spacing	20	gorilla_corr_est	11	corr_est	fixation	uey5yj	1	continue		1986.1579999999958	1986.1579999999958	1986.1579999999958	1986.1579999999958	1986.1579999999958	1986.1579999999958	1	1986.1579999999958	0	0		Fixation Timing	Fixation	1	object-16	corr_est	1	pcp_corr_-0.462_size_40_480.png	pcp_corr_-0.462_size_40_480	-0.462	40	480	-1					corr_est_stimulus			
48	1686560841054	12/06/2023 09:07:21	1686564441054	1	12/06/2023 11:07:21	135554	9	task-3dzl		30006867	f959a861b33de106de11f88f1e3f5366		complete		6486edc3b7d7cf855a76868d	computer	Desktop or Laptop	Windows 10	Chrome 114.0.0.0	1920x1080	1920x969		corr_spacing	20	gorilla_corr_est	11	corr_est	corr_est_stimulus	ws1eyw	2	tooEarly	0	0	0	0	2631.2910000029806	2625.0939999999973	2631.2910000029806	1	0	0	0	estimated_corr	Click Response	0	7	object-26	corr_est	1	pcp_corr_-0.462_size_40_480.png	pcp_corr_-0.462_size_40_480	-0.462	40	480	-1					corr_est_stimulus			
49	1686560841056	12/06/2023 09:07:21	1686564441056	1	12/06/2023 11:07:21	135554	9	task-3dzl		30006867	f959a861b33de106de11f88f1e3f5366		complete		6486edc3b7d7cf855a76868d	computer	Desktop or Laptop	Windows 10	Chrome 114.0.0.0	1920x1080	1920x969		corr_spacing	20	gorilla_corr_est	11	corr_est	corr_est_stimulus	ws1eyw	2	continue		0	0	0	2632.055999999997	2625.0939999999973	2632.055999999997	1	0	0	0		Click To Continue	0	7	object-26	corr_est	1	pcp_corr_-0.462_size_40_480.png	pcp_corr_-0.462_size_40_480	-0.462	40	480	-1					corr_est_stimulus			
50	1686560843034	12/06/2023 09:07:23	1686564443034	1	12/06/2023 11:07:23	135554	9	task-3dzl		30006867	f959a861b33de106de11f88f1e3f5366		complete		6486edc3b7d7cf855a76868d	computer	Desktop or Laptop	Windows 10	Chrome 114.0.0.0	1920x1080	1920x969		corr_spacing	20	gorilla_corr_est	12	corr_est	fixation	uey5yj	1	continue		1986.172000000006	1986.172000000006	1986.172000000006	1986.172000000006	1986.172000000006	1986.172000000006	1	1986.172000000006	0	0		Fixation Timing	Fixation	1	object-16	corr_est	1	pcp_corr_0.462_size_40_480.png	pcp_corr_0.462_size_40_480	0.462	40	480	1					corr_est_stimulus			
51	1686560847792	12/06/2023 09:07:27	1686564447792	1	12/06/2023 11:07:27	135554	9	task-3dzl		30006867	f959a861b33de106de11f88f1e3f5366		complete		6486edc3b7d7cf855a76868d	computer	Desktop or Laptop	Windows 10	Chrome 114.0.0.0	1920x1080	1920x969		corr_spacing	20	gorilla_corr_est	12	corr_est	corr_est_stimulus	ws1eyw	2	tooEarly	2	0	0	0	4757.125000000015	4750.141000000003	4757.125000000015	1	0	0	0	estimated_corr	Click Response	++	9	object-28	corr_est	1	pcp_corr_0.462_size_40_480.png	pcp_corr_0.462_size_40_480	0.462	40	480	1					corr_est_stimulus			
52	1686560847792	12/06/2023 09:07:27	1686564447792	1	12/06/2023 11:07:27	135554	9	task-3dzl		30006867	f959a861b33de106de11f88f1e3f5366		complete		6486edc3b7d7cf855a76868d	computer	Desktop or Laptop	Windows 10	Chrome 114.0.0.0	1920x1080	1920x969		corr_spacing	20	gorilla_corr_est	12	corr_est	corr_est_stimulus	ws1eyw	2	continue		0	0	0	4757.125000000015	4750.141000000003	4757.125000000015	1	0	0	0		Click To Continue	++	9	object-28	corr_est	1	pcp_corr_0.462_size_40_480.png	pcp_corr_0.462_size_40_480	0.462	40	480	1					corr_est_stimulus			
53	1686560849771	12/06/2023 09:07:29	1686564449771	1	12/06/2023 11:07:29	135554	9	task-3dzl		30006867	f959a861b33de106de11f88f1e3f5366		complete		6486edc3b7d7cf855a76868d	computer	Desktop or Laptop	Windows 10	Chrome 114.0.0.0	1920x1080	1920x969		corr_spacing	20	gorilla_corr_est	1	attention_parallel	fixation	3sst63	1	continue		1986.1359999999986	1986.1359999999986	1986.1359999999986	1986.1359999999986	1986.1359999999986	1986.1359999999986	1	1986.1359999999986	0	0		Fixation Timing	Fixation	1	object-77	attention_parallel									parallel_lines_horiz_numbered.png	A		attention_parallel_select			
54	1686560852823	12/06/2023 09:07:32	1686564452823	1	12/06/2023 11:07:32	135554	9	task-3dzl		30006867	f959a861b33de106de11f88f1e3f5366		complete		6486edc3b7d7cf855a76868d	computer	Desktop or Laptop	Windows 10	Chrome 114.0.0.0	1920x1080	1920x969		corr_spacing	20	gorilla_corr_est	1	attention_parallel	attention_parallel_select	jqb8p9	2	continue		3052.547999999995	3048.676999999996	3052.547999999995	3052.547999999995	3048.676999999996	3052.547999999995	1	3052.547999999995	0	0		Click To Continue	button_A	2	object-67	attention_parallel									parallel_lines_horiz_numbered.png	A		attention_parallel_select			
55	1686560854806	12/06/2023 09:07:34	1686564454806	1	12/06/2023 11:07:34	135554	9	task-3dzl		30006867	f959a861b33de106de11f88f1e3f5366		complete		6486edc3b7d7cf855a76868d	computer	Desktop or Laptop	Windows 10	Chrome 114.0.0.0	1920x1080	1920x969		corr_spacing	20	gorilla_corr_est	13	corr_est	fixation	uey5yj	1	continue		1986.1560000000027	1986.1560000000027	1986.1560000000027	1986.1560000000027	1986.1560000000027	1986.1560000000027	1	1986.1560000000027	0	0		Fixation Timing	Fixation	1	object-16	corr_est	1	pcp_corr_-0.762_size_160_120.png	pcp_corr_-0.762_size_160_120	-0.762	160	120	-2					corr_est_stimulus			
56	1686560858164	12/06/2023 09:07:38	1686564458164	1	12/06/2023 11:07:38	135554	9	task-3dzl		30006867	f959a861b33de106de11f88f1e3f5366		complete		6486edc3b7d7cf855a76868d	computer	Desktop or Laptop	Windows 10	Chrome 114.0.0.0	1920x1080	1920x969		corr_spacing	20	gorilla_corr_est	13	corr_est	corr_est_stimulus	ws1eyw	2	tooEarly	3	0	0	0	3359.2149999999965	3354.252999999997	3359.2149999999965	1	0	0	0	estimated_corr	Click Response	+++	10	object-29	corr_est	1	pcp_corr_-0.762_size_160_120.png	pcp_corr_-0.762_size_160_120	-0.762	160	120	-2					corr_est_stimulus			
57	1686560858165	12/06/2023 09:07:38	1686564458165	1	12/06/2023 11:07:38	135554	9	task-3dzl		30006867	f959a861b33de106de11f88f1e3f5366		complete		6486edc3b7d7cf855a76868d	computer	Desktop or Laptop	Windows 10	Chrome 114.0.0.0	1920x1080	1920x969		corr_spacing	20	gorilla_corr_est	13	corr_est	corr_est_stimulus	ws1eyw	2	continue		0	0	0	3359.3150000014866	3354.252999999997	3359.3150000014866	1	0	0	0		Click To Continue	+++	10	object-29	corr_est	1	pcp_corr_-0.762_size_160_120.png	pcp_corr_-0.762_size_160_120	-0.762	160	120	-2					corr_est_stimulus			
58	1686560859327	12/06/2023 09:07:39	1686564459327	1	12/06/2023 11:07:39	135554	9	task-3dzl		30006867	f959a861b33de106de11f88f1e3f5366		complete		6486edc3b7d7cf855a76868d	computer	Desktop or Laptop	Windows 10	Chrome 114.0.0.0	1920x1080	1920x969		corr_spacing	20	gorilla_corr_est	14	corr_est	fixation	uey5yj	1	continue		1166.6549999999988	1166.6549999999988	1166.6549999999988	1166.6549999999988	1166.6549999999988	1166.6549999999988	1	1166.6549999999988	0	0		Fixation Timing	Fixation	1	object-16	corr_est	1	pcp_corr_0.762_size_160_120.png	pcp_corr_0.762_size_160_120	0.762	160	120	2					corr_est_stimulus			
59	1686560861989	12/06/2023 09:07:41	1686564461989	1	12/06/2023 11:07:41	135554	9	task-3dzl		30006867	f959a861b33de106de11f88f1e3f5366		complete		6486edc3b7d7cf855a76868d	computer	Desktop or Laptop	Windows 10	Chrome 114.0.0.0	1920x1080	1920x969		corr_spacing	20	gorilla_corr_est	14	corr_est	corr_est_stimulus	ws1eyw	2	tooEarly	1	0	0	0	2663.3070000000007	2659.831999999995	2663.3070000000007	1	0	0	0	estimated_corr	Click Response	+	8	object-27	corr_est	1	pcp_corr_0.762_size_160_120.png	pcp_corr_0.762_size_160_120	0.762	160	120	2					corr_est_stimulus			
60	1686560861990	12/06/2023 09:07:41	1686564461990	1	12/06/2023 11:07:41	135554	9	task-3dzl		30006867	f959a861b33de106de11f88f1e3f5366		complete		6486edc3b7d7cf855a76868d	computer	Desktop or Laptop	Windows 10	Chrome 114.0.0.0	1920x1080	1920x969		corr_spacing	20	gorilla_corr_est	14	corr_est	corr_est_stimulus	ws1eyw	2	continue		0	0	0	2663.507000002981	2659.831999999995	2663.507000002981	1	0	0	0		Click To Continue	+	8	object-27	corr_est	1	pcp_corr_0.762_size_160_120.png	pcp_corr_0.762_size_160_120	0.762	160	120	2					corr_est_stimulus			
61	1686560863972	12/06/2023 09:07:43	1686564463972	1	12/06/2023 11:07:43	135554	9	task-3dzl		30006867	f959a861b33de106de11f88f1e3f5366		complete		6486edc3b7d7cf855a76868d	computer	Desktop or Laptop	Windows 10	Chrome 114.0.0.0	1920x1080	1920x969		corr_spacing	20	gorilla_corr_est	15	corr_est	fixation	uey5yj	1	continue		1986.2250000000058	1986.2250000000058	1986.2250000000058	1986.2250000000058	1986.2250000000058	1986.2250000000058	1	1986.2250000000058	0	0		Fixation Timing	Fixation	1	object-16	corr_est	1	pcp_corr_-0.762_size_160_30.png	pcp_corr_-0.762_size_160_30	-0.762	160	30	-2					corr_est_stimulus			
62	1686560864924	12/06/2023 09:07:44	1686564464924	1	12/06/2023 11:07:44	135554	9	task-3dzl		30006867	f959a861b33de106de11f88f1e3f5366		complete		6486edc3b7d7cf855a76868d	computer	Desktop or Laptop	Windows 10	Chrome 114.0.0.0	1920x1080	1920x969		corr_spacing	20	gorilla_corr_est	15	corr_est	corr_est_stimulus	ws1eyw	2	tooEarly	2	0	0	0	952.0499999970198	951.3160000000062	952.0499999970198	1	0	0	0	estimated_corr	Click Response	++	9	object-28	corr_est	1	pcp_corr_-0.762_size_160_30.png	pcp_corr_-0.762_size_160_30	-0.762	160	30	-2					corr_est_stimulus			
63	1686560864924	12/06/2023 09:07:44	1686564464924	1	12/06/2023 11:07:44	135554	9	task-3dzl		30006867	f959a861b33de106de11f88f1e3f5366		complete		6486edc3b7d7cf855a76868d	computer	Desktop or Laptop	Windows 10	Chrome 114.0.0.0	1920x1080	1920x969		corr_spacing	20	gorilla_corr_est	15	corr_est	corr_est_stimulus	ws1eyw	2	continue		0	0	0	952.0499999970198	951.3160000000062	952.0499999970198	1	0	0	0		Click To Continue	++	9	object-28	corr_est	1	pcp_corr_-0.762_size_160_30.png	pcp_corr_-0.762_size_160_30	-0.762	160	30	-2					corr_est_stimulus			
64	1686560866910	12/06/2023 09:07:46	1686564466910	1	12/06/2023 11:07:46	135554	9	task-3dzl		30006867	f959a861b33de106de11f88f1e3f5366		complete		6486edc3b7d7cf855a76868d	computer	Desktop or Laptop	Windows 10	Chrome 114.0.0.0	1920x1080	1920x969		corr_spacing	20	gorilla_corr_est	16	corr_est	fixation	uey5yj	1	continue		1986.1589999999997	1986.1589999999997	1986.1589999999997	1986.1589999999997	1986.1589999999997	1986.1589999999997	1	1986.1589999999997	0	0		Fixation Timing	Fixation	1	object-16	corr_est	1	pcp_corr_0.762_size_160_30.png	pcp_corr_0.762_size_160_30	0.762	160	30	2					corr_est_stimulus			
65	1686560869148	12/06/2023 09:07:49	1686564469148	1	12/06/2023 11:07:49	135554	9	task-3dzl		30006867	f959a861b33de106de11f88f1e3f5366		complete		6486edc3b7d7cf855a76868d	computer	Desktop or Laptop	Windows 10	Chrome 114.0.0.0	1920x1080	1920x969		corr_spacing	20	gorilla_corr_est	16	corr_est	corr_est_stimulus	ws1eyw	2	tooEarly	2	0	0	0	2238.574999997014	2236.2160000000003	2238.574999997014	1	0	0	0	estimated_corr	Click Response	++	9	object-28	corr_est	1	pcp_corr_0.762_size_160_30.png	pcp_corr_0.762_size_160_30	0.762	160	30	2					corr_est_stimulus			
66	1686560869149	12/06/2023 09:07:49	1686564469149	1	12/06/2023 11:07:49	135554	9	task-3dzl		30006867	f959a861b33de106de11f88f1e3f5366		complete		6486edc3b7d7cf855a76868d	computer	Desktop or Laptop	Windows 10	Chrome 114.0.0.0	1920x1080	1920x969		corr_spacing	20	gorilla_corr_est	16	corr_est	corr_est_stimulus	ws1eyw	2	continue		0	0	0	2238.774999999994	2236.2160000000003	2238.774999999994	1	0	0	0		Click To Continue	++	9	object-28	corr_est	1	pcp_corr_0.762_size_160_30.png	pcp_corr_0.762_size_160_30	0.762	160	30	2					corr_est_stimulus			
67	1686560871132	12/06/2023 09:07:51	1686564471132	1	12/06/2023 11:07:51	135554	9	task-3dzl		30006867	f959a861b33de106de11f88f1e3f5366		complete		6486edc3b7d7cf855a76868d	computer	Desktop or Laptop	Windows 10	Chrome 114.0.0.0	1920x1080	1920x969		corr_spacing	20	gorilla_corr_est	17	corr_est	fixation	uey5yj	1	continue		1986.1469999999972	1986.1469999999972	1986.1469999999972	1986.1469999999972	1986.1469999999972	1986.1469999999972	1	1986.1469999999972	0	0		Fixation Timing	Fixation	1	object-16	corr_est	1	pcp_corr_-0.762_size_160_480.png	pcp_corr_-0.762_size_160_480	-0.762	160	480	-2					corr_est_stimulus			
68	1686560874035	12/06/2023 09:07:54	1686564474035	1	12/06/2023 11:07:54	135554	9	task-3dzl		30006867	f959a861b33de106de11f88f1e3f5366		complete		6486edc3b7d7cf855a76868d	computer	Desktop or Laptop	Windows 10	Chrome 114.0.0.0	1920x1080	1920x969		corr_spacing	20	gorilla_corr_est	17	corr_est	corr_est_stimulus	ws1eyw	2	tooEarly	-3	0	0	0	2902.5120000014867	2896.021999999997	2902.5120000014867	1	0	0	0	estimated_corr	Click Response	---	4	object-23	corr_est	1	pcp_corr_-0.762_size_160_480.png	pcp_corr_-0.762_size_160_480	-0.762	160	480	-2					corr_est_stimulus			
69	1686560874037	12/06/2023 09:07:54	1686564474037	1	12/06/2023 11:07:54	135554	9	task-3dzl		30006867	f959a861b33de106de11f88f1e3f5366		complete		6486edc3b7d7cf855a76868d	computer	Desktop or Laptop	Windows 10	Chrome 114.0.0.0	1920x1080	1920x969		corr_spacing	20	gorilla_corr_est	17	corr_est	corr_est_stimulus	ws1eyw	2	continue		0	0	0	2903.0669999999955	2896.021999999997	2903.0669999999955	1	0	0	0		Click To Continue	---	4	object-23	corr_est	1	pcp_corr_-0.762_size_160_480.png	pcp_corr_-0.762_size_160_480	-0.762	160	480	-2					corr_est_stimulus			
70	1686560876014	12/06/2023 09:07:56	1686564476014	1	12/06/2023 11:07:56	135554	9	task-3dzl		30006867	f959a861b33de106de11f88f1e3f5366		complete		6486edc3b7d7cf855a76868d	computer	Desktop or Laptop	Windows 10	Chrome 114.0.0.0	1920x1080	1920x969		corr_spacing	20	gorilla_corr_est	18	corr_est	fixation	uey5yj	1	continue		1986.0439999999944	1986.0439999999944	1986.0439999999944	1986.0439999999944	1986.0439999999944	1986.0439999999944	1	1986.0439999999944	0	0		Fixation Timing	Fixation	1	object-16	corr_est	1	pcp_corr_0.762_size_160_480.png	pcp_corr_0.762_size_160_480	0.762	160	480	2					corr_est_stimulus			
71	1686560876915	12/06/2023 09:07:56	1686564476915	1	12/06/2023 11:07:56	135554	9	task-3dzl		30006867	f959a861b33de106de11f88f1e3f5366		complete		6486edc3b7d7cf855a76868d	computer	Desktop or Laptop	Windows 10	Chrome 114.0.0.0	1920x1080	1920x969		corr_spacing	20	gorilla_corr_est	18	corr_est	corr_est_stimulus	ws1eyw	2	tooEarly	-2	0	0	0	901.0460000029852	895.8620000000083	901.0460000029852	1	0	0	0	estimated_corr	Click Response	--	5	object-24	corr_est	1	pcp_corr_0.762_size_160_480.png	pcp_corr_0.762_size_160_480	0.762	160	480	2					corr_est_stimulus			
72	1686560876915	12/06/2023 09:07:56	1686564476915	1	12/06/2023 11:07:56	135554	9	task-3dzl		30006867	f959a861b33de106de11f88f1e3f5366		complete		6486edc3b7d7cf855a76868d	computer	Desktop or Laptop	Windows 10	Chrome 114.0.0.0	1920x1080	1920x969		corr_spacing	20	gorilla_corr_est	18	corr_est	corr_est_stimulus	ws1eyw	2	continue		0	0	0	901.2459999985149	895.8620000000083	901.2459999985149	1	0	0	0		Click To Continue	--	5	object-24	corr_est	1	pcp_corr_0.762_size_160_480.png	pcp_corr_0.762_size_160_480	0.762	160	480	2					corr_est_stimulus			
73	1686560878344	12/06/2023 09:07:58	1686564478344	1	12/06/2023 11:07:58	135554	9	task-3dzl		30006867	f959a861b33de106de11f88f1e3f5366		complete		6486edc3b7d7cf855a76868d	computer	Desktop or Laptop	Windows 10	Chrome 114.0.0.0	1920x1080	1920x969		corr_spacing	20	gorilla_corr_est	19	corr_est	fixation	uey5yj	1	continue		1430.5599999999977	1430.5599999999977	1430.5599999999977	1430.5599999999977	1430.5599999999977	1430.5599999999977	1	1430.5599999999977	0	0		Fixation Timing	Fixation	1	object-16	corr_est	1	pcp_corr_-0.762_size_40_120.png	pcp_corr_-0.762_size_40_120	-0.762	40	120	-2					corr_est_stimulus			
74	1686560879562	12/06/2023 09:07:59	1686564479562	1	12/06/2023 11:07:59	135554	9	task-3dzl		30006867	f959a861b33de106de11f88f1e3f5366		complete		6486edc3b7d7cf855a76868d	computer	Desktop or Laptop	Windows 10	Chrome 114.0.0.0	1920x1080	1920x969		corr_spacing	20	gorilla_corr_est	19	corr_est	corr_est_stimulus	ws1eyw	2	tooEarly	2	0	0	0	1220.923999999999	1215.4040000000095	1220.923999999999	1	0	0	0	estimated_corr	Click Response	++	9	object-28	corr_est	1	pcp_corr_-0.762_size_40_120.png	pcp_corr_-0.762_size_40_120	-0.762	40	120	-2					corr_est_stimulus			
75	1686560879562	12/06/2023 09:07:59	1686564479562	1	12/06/2023 11:07:59	135554	9	task-3dzl		30006867	f959a861b33de106de11f88f1e3f5366		complete		6486edc3b7d7cf855a76868d	computer	Desktop or Laptop	Windows 10	Chrome 114.0.0.0	1920x1080	1920x969		corr_spacing	20	gorilla_corr_est	19	corr_est	corr_est_stimulus	ws1eyw	2	continue		0	0	0	1221.2239999970188	1215.4040000000095	1221.2239999970188	1	0	0	0		Click To Continue	++	9	object-28	corr_est	1	pcp_corr_-0.762_size_40_120.png	pcp_corr_-0.762_size_40_120	-0.762	40	120	-2					corr_est_stimulus			
76	1686560881542	12/06/2023 09:08:01	1686564481542	1	12/06/2023 11:08:01	135554	9	task-3dzl		30006867	f959a861b33de106de11f88f1e3f5366		complete		6486edc3b7d7cf855a76868d	computer	Desktop or Laptop	Windows 10	Chrome 114.0.0.0	1920x1080	1920x969		corr_spacing	20	gorilla_corr_est	20	corr_est	fixation	uey5yj	1	continue		1986.125	1986.125	1986.125	1986.125	1986.125	1986.125	1	1986.125	0	0		Fixation Timing	Fixation	1	object-16	corr_est	1	pcp_corr_0.762_size_40_120.png	pcp_corr_0.762_size_40_120	0.762	40	120	2					corr_est_stimulus			
77	1686560882468	12/06/2023 09:08:02	1686564482468	1	12/06/2023 11:08:02	135554	9	task-3dzl		30006867	f959a861b33de106de11f88f1e3f5366		complete		6486edc3b7d7cf855a76868d	computer	Desktop or Laptop	Windows 10	Chrome 114.0.0.0	1920x1080	1920x969		corr_spacing	20	gorilla_corr_est	20	corr_est	corr_est_stimulus	ws1eyw	2	tooEarly	1	0	0	0	926.3949999999895	923.6229999999923	926.3949999999895	1	0	0	0	estimated_corr	Click Response	+	8	object-27	corr_est	1	pcp_corr_0.762_size_40_120.png	pcp_corr_0.762_size_40_120	0.762	40	120	2					corr_est_stimulus			
78	1686560882469	12/06/2023 09:08:02	1686564482469	1	12/06/2023 11:08:02	135554	9	task-3dzl		30006867	f959a861b33de106de11f88f1e3f5366		complete		6486edc3b7d7cf855a76868d	computer	Desktop or Laptop	Windows 10	Chrome 114.0.0.0	1920x1080	1920x969		corr_spacing	20	gorilla_corr_est	20	corr_est	corr_est_stimulus	ws1eyw	2	continue		0	0	0	926.7949999984994	923.6229999999923	926.7949999984994	1	0	0	0		Click To Continue	+	8	object-27	corr_est	1	pcp_corr_0.762_size_40_120.png	pcp_corr_0.762_size_40_120	0.762	40	120	2					corr_est_stimulus			
79	1686560884452	12/06/2023 09:08:04	1686564484452	1	12/06/2023 11:08:04	135554	9	task-3dzl		30006867	f959a861b33de106de11f88f1e3f5366		complete		6486edc3b7d7cf855a76868d	computer	Desktop or Laptop	Windows 10	Chrome 114.0.0.0	1920x1080	1920x969		corr_spacing	20	gorilla_corr_est	21	corr_est	fixation	uey5yj	1	continue		1986.1620000000112	1986.1620000000112	1986.1620000000112	1986.1620000000112	1986.1620000000112	1986.1620000000112	1	1986.1620000000112	0	0		Fixation Timing	Fixation	1	object-16	corr_est	1	pcp_corr_-0.762_size_40_30.png	pcp_corr_-0.762_size_40_30	-0.762	40	30	-2					corr_est_stimulus			
80	1686560886098	12/06/2023 09:08:06	1686564486098	1	12/06/2023 11:08:06	135554	9	task-3dzl		30006867	f959a861b33de106de11f88f1e3f5366		complete		6486edc3b7d7cf855a76868d	computer	Desktop or Laptop	Windows 10	Chrome 114.0.0.0	1920x1080	1920x969		corr_spacing	20	gorilla_corr_est	21	corr_est	corr_est_stimulus	ws1eyw	2	tooEarly	1	0	0	0	1646.609999999986	1645.877999999997	1646.609999999986	1	0	0	0	estimated_corr	Click Response	+	8	object-27	corr_est	1	pcp_corr_-0.762_size_40_30.png	pcp_corr_-0.762_size_40_30	-0.762	40	30	-2					corr_est_stimulus			
81	1686560886098	12/06/2023 09:08:06	1686564486098	1	12/06/2023 11:08:06	135554	9	task-3dzl		30006867	f959a861b33de106de11f88f1e3f5366		complete		6486edc3b7d7cf855a76868d	computer	Desktop or Laptop	Windows 10	Chrome 114.0.0.0	1920x1080	1920x969		corr_spacing	20	gorilla_corr_est	21	corr_est	corr_est_stimulus	ws1eyw	2	continue		0	0	0	1646.7100000014761	1645.877999999997	1646.7100000014761	1	0	0	0		Click To Continue	+	8	object-27	corr_est	1	pcp_corr_-0.762_size_40_30.png	pcp_corr_-0.762_size_40_30	-0.762	40	30	-2					corr_est_stimulus			
82	1686560888084	12/06/2023 09:08:08	1686564488084	1	12/06/2023 11:08:08	135554	9	task-3dzl		30006867	f959a861b33de106de11f88f1e3f5366		complete		6486edc3b7d7cf855a76868d	computer	Desktop or Laptop	Windows 10	Chrome 114.0.0.0	1920x1080	1920x969		corr_spacing	20	gorilla_corr_est	22	corr_est	fixation	uey5yj	1	continue		1986.1600000000035	1986.1600000000035	1986.1600000000035	1986.1600000000035	1986.1600000000035	1986.1600000000035	1	1986.1600000000035	0	0		Fixation Timing	Fixation	1	object-16	corr_est	1	pcp_corr_0.762_size_40_30.png	pcp_corr_0.762_size_40_30	0.762	40	30	2					corr_est_stimulus			
83	1686560889036	12/06/2023 09:08:09	1686564489036	1	12/06/2023 11:08:09	135554	9	task-3dzl		30006867	f959a861b33de106de11f88f1e3f5366		complete		6486edc3b7d7cf855a76868d	computer	Desktop or Laptop	Windows 10	Chrome 114.0.0.0	1920x1080	1920x969		corr_spacing	20	gorilla_corr_est	22	corr_est	corr_est_stimulus	ws1eyw	2	tooEarly	1	0	0	0	952.3719999970053	951.4339999999793	952.3719999970053	1	0	0	0	estimated_corr	Click Response	+	8	object-27	corr_est	1	pcp_corr_0.762_size_40_30.png	pcp_corr_0.762_size_40_30	0.762	40	30	2					corr_est_stimulus			
84	1686560889036	12/06/2023 09:08:09	1686564489036	1	12/06/2023 11:08:09	135554	9	task-3dzl		30006867	f959a861b33de106de11f88f1e3f5366		complete		6486edc3b7d7cf855a76868d	computer	Desktop or Laptop	Windows 10	Chrome 114.0.0.0	1920x1080	1920x969		corr_spacing	20	gorilla_corr_est	22	corr_est	corr_est_stimulus	ws1eyw	2	continue		0	0	0	952.6720000014757	951.4339999999793	952.6720000014757	1	0	0	0		Click To Continue	+	8	object-27	corr_est	1	pcp_corr_0.762_size_40_30.png	pcp_corr_0.762_size_40_30	0.762	40	30	2					corr_est_stimulus			
85	1686560891021	12/06/2023 09:08:11	1686564491021	1	12/06/2023 11:08:11	135554	9	task-3dzl		30006867	f959a861b33de106de11f88f1e3f5366		complete		6486edc3b7d7cf855a76868d	computer	Desktop or Laptop	Windows 10	Chrome 114.0.0.0	1920x1080	1920x969		corr_spacing	20	gorilla_corr_est	23	corr_est	fixation	uey5yj	1	continue		1986.1510000000126	1986.1510000000126	1986.1510000000126	1986.1510000000126	1986.1510000000126	1986.1510000000126	1	1986.1510000000126	0	0		Fixation Timing	Fixation	1	object-16	corr_est	1	pcp_corr_-0.762_size_40_480.png	pcp_corr_-0.762_size_40_480	-0.762	40	480	-2					corr_est_stimulus			
86	1686560892535	12/06/2023 09:08:12	1686564492535	1	12/06/2023 11:08:12	135554	9	task-3dzl		30006867	f959a861b33de106de11f88f1e3f5366		complete		6486edc3b7d7cf855a76868d	computer	Desktop or Laptop	Windows 10	Chrome 114.0.0.0	1920x1080	1920x969		corr_spacing	20	gorilla_corr_est	23	corr_est	corr_est_stimulus	ws1eyw	2	tooEarly	0	0	0	0	1513.3869999985036	1506.9750000000058	1513.3869999985036	1	0	0	0	estimated_corr	Click Response	0	7	object-26	corr_est	1	pcp_corr_-0.762_size_40_480.png	pcp_corr_-0.762_size_40_480	-0.762	40	480	-2					corr_est_stimulus			
87	1686560892535	12/06/2023 09:08:12	1686564492535	1	12/06/2023 11:08:12	135554	9	task-3dzl		30006867	f959a861b33de106de11f88f1e3f5366		complete		6486edc3b7d7cf855a76868d	computer	Desktop or Laptop	Windows 10	Chrome 114.0.0.0	1920x1080	1920x969		corr_spacing	20	gorilla_corr_est	23	corr_est	corr_est_stimulus	ws1eyw	2	continue		0	0	0	1513.687000002974	1506.9750000000058	1513.687000002974	1	0	0	0		Click To Continue	0	7	object-26	corr_est	1	pcp_corr_-0.762_size_40_480.png	pcp_corr_-0.762_size_40_480	-0.762	40	480	-2					corr_est_stimulus			
88	1686560894515	12/06/2023 09:08:14	1686564494515	1	12/06/2023 11:08:14	135554	9	task-3dzl		30006867	f959a861b33de106de11f88f1e3f5366		complete		6486edc3b7d7cf855a76868d	computer	Desktop or Laptop	Windows 10	Chrome 114.0.0.0	1920x1080	1920x969		corr_spacing	20	gorilla_corr_est	24	corr_est	fixation	uey5yj	1	continue		1986.1630000000005	1986.1630000000005	1986.1630000000005	1986.1630000000005	1986.1630000000005	1986.1630000000005	1	1986.1630000000005	0	0		Fixation Timing	Fixation	1	object-16	corr_est	1	pcp_corr_0.762_size_40_480.png	pcp_corr_0.762_size_40_480	0.762	40	480	2					corr_est_stimulus			
89	1686560895591	12/06/2023 09:08:15	1686564495591	1	12/06/2023 11:08:15	135554	9	task-3dzl		30006867	f959a861b33de106de11f88f1e3f5366		complete		6486edc3b7d7cf855a76868d	computer	Desktop or Laptop	Windows 10	Chrome 114.0.0.0	1920x1080	1920x969		corr_spacing	20	gorilla_corr_est	24	corr_est	corr_est_stimulus	ws1eyw	2	tooEarly	0	0	0	0	1077.0490000029677	1076.4099999999744	1077.0490000029677	1	0	0	0	estimated_corr	Click Response	0	7	object-26	corr_est	1	pcp_corr_0.762_size_40_480.png	pcp_corr_0.762_size_40_480	0.762	40	480	2					corr_est_stimulus			
90	1686560895592	12/06/2023 09:08:15	1686564495592	1	12/06/2023 11:08:15	135554	9	task-3dzl		30006867	f959a861b33de106de11f88f1e3f5366		complete		6486edc3b7d7cf855a76868d	computer	Desktop or Laptop	Windows 10	Chrome 114.0.0.0	1920x1080	1920x969		corr_spacing	20	gorilla_corr_est	24	corr_est	corr_est_stimulus	ws1eyw	2	continue		0	0	0	1077.1489999970072	1076.4099999999744	1077.1489999970072	1	0	0	0		Click To Continue	0	7	object-26	corr_est	1	pcp_corr_0.762_size_40_480.png	pcp_corr_0.762_size_40_480	0.762	40	480	2					corr_est_stimulus			
91	1686560898443	12/06/2023 09:08:18	1686564498443	1	12/06/2023 11:08:18	135554	9	task-3dzl		30006867	f959a861b33de106de11f88f1e3f5366		complete		6486edc3b7d7cf855a76868d	computer	Desktop or Laptop	Windows 10	Chrome 114.0.0.0	1920x1080	1920x969		corr_spacing	20	gorilla_corr_est	1	attention_button	fixation	ow4syi	1	continue		2847.2600000000093	2847.2600000000093	2847.2600000000093	2847.2600000000093	2847.2600000000093	2847.2600000000093	1	2847.2600000000093	0	0		Fixation Timing	Fixation	1	object-86	attention_button										A		attention_button_select			
92	1686560899659	12/06/2023 09:08:19	1686564499659	1	12/06/2023 11:08:19	135554	9	task-3dzl		30006867	f959a861b33de106de11f88f1e3f5366		complete		6486edc3b7d7cf855a76868d	computer	Desktop or Laptop	Windows 10	Chrome 114.0.0.0	1920x1080	1920x969		corr_spacing	20	gorilla_corr_est	1	attention_button	attention_button_select	mx2tou	2	response	A	1220.5789999985136	1215.3340000000026	1220.5789999985136	1220.5789999985136	1215.3340000000026	1220.5789999985136	1	1220.5789999985136	0	0		Click Response	Response	1	object-81	attention_button										A		attention_button_select			
93	1686560901640	12/06/2023 09:08:21	1686564501640	1	12/06/2023 11:08:21	135554	9	task-3dzl		30006867	f959a861b33de106de11f88f1e3f5366		complete		6486edc3b7d7cf855a76868d	computer	Desktop or Laptop	Windows 10	Chrome 114.0.0.0	1920x1080	1920x969		corr_spacing	20	gorilla_corr_est	25	corr_est	fixation	uey5yj	1	continue		1986.1609999999928	1986.1609999999928	1986.1609999999928	1986.1609999999928	1986.1609999999928	1986.1609999999928	1	1986.1609999999928	0	0		Fixation Timing	Fixation	1	object-16	corr_est	1	pcp_corr_-0.905_size_160_120.png	pcp_corr_-0.905_size_160_120	-0.905	160	120	-3					corr_est_stimulus			
94	1686560903725	12/06/2023 09:08:23	1686564503725	1	12/06/2023 11:08:23	135554	9	task-3dzl		30006867	f959a861b33de106de11f88f1e3f5366		complete		6486edc3b7d7cf855a76868d	computer	Desktop or Laptop	Windows 10	Chrome 114.0.0.0	1920x1080	1920x969		corr_spacing	20	gorilla_corr_est	25	corr_est	corr_est_stimulus	ws1eyw	2	tooEarly	-3	0	0	0	2085.5839999985183	2083.341000000015	2085.5839999985183	1	0	0	0	estimated_corr	Click Response	---	4	object-23	corr_est	1	pcp_corr_-0.905_size_160_120.png	pcp_corr_-0.905_size_160_120	-0.905	160	120	-3					corr_est_stimulus			
95	1686560903725	12/06/2023 09:08:23	1686564503725	1	12/06/2023 11:08:23	135554	9	task-3dzl		30006867	f959a861b33de106de11f88f1e3f5366		complete		6486edc3b7d7cf855a76868d	computer	Desktop or Laptop	Windows 10	Chrome 114.0.0.0	1920x1080	1920x969		corr_spacing	20	gorilla_corr_est	25	corr_est	corr_est_stimulus	ws1eyw	2	continue		0	0	0	2085.8840000029886	2083.341000000015	2085.8840000029886	1	0	0	0		Click To Continue	---	4	object-23	corr_est	1	pcp_corr_-0.905_size_160_120.png	pcp_corr_-0.905_size_160_120	-0.905	160	120	-3					corr_est_stimulus			
96	1686560905709	12/06/2023 09:08:25	1686564505709	1	12/06/2023 11:08:25	135554	9	task-3dzl		30006867	f959a861b33de106de11f88f1e3f5366		complete		6486edc3b7d7cf855a76868d	computer	Desktop or Laptop	Windows 10	Chrome 114.0.0.0	1920x1080	1920x969		corr_spacing	20	gorilla_corr_est	26	corr_est	fixation	uey5yj	1	continue		1986.24099999998	1986.24099999998	1986.24099999998	1986.24099999998	1986.24099999998	1986.24099999998	1	1986.24099999998	0	0		Fixation Timing	Fixation	1	object-16	corr_est	1	pcp_corr_0.905_size_160_120.png	pcp_corr_0.905_size_160_120	0.905	160	120	3					corr_est_stimulus			
97	1686560906839	12/06/2023 09:08:26	1686564506839	1	12/06/2023 11:08:26	135554	9	task-3dzl		30006867	f959a861b33de106de11f88f1e3f5366		complete		6486edc3b7d7cf855a76868d	computer	Desktop or Laptop	Windows 10	Chrome 114.0.0.0	1920x1080	1920x969		corr_spacing	20	gorilla_corr_est	26	corr_est	corr_est_stimulus	ws1eyw	2	tooEarly	-2	0	0	0	1129.6020000000135	1124.9780000000028	1129.6020000000135	1	0	0	0	estimated_corr	Click Response	--	5	object-24	corr_est	1	pcp_corr_0.905_size_160_120.png	pcp_corr_0.905_size_160_120	0.905	160	120	3					corr_est_stimulus			
98	1686560906839	12/06/2023 09:08:26	1686564506839	1	12/06/2023 11:08:26	135554	9	task-3dzl		30006867	f959a861b33de106de11f88f1e3f5366		complete		6486edc3b7d7cf855a76868d	computer	Desktop or Laptop	Windows 10	Chrome 114.0.0.0	1920x1080	1920x969		corr_spacing	20	gorilla_corr_est	26	corr_est	corr_est_stimulus	ws1eyw	2	continue		0	0	0	1129.8020000029937	1124.9780000000028	1129.8020000029937	1	0	0	0		Click To Continue	--	5	object-24	corr_est	1	pcp_corr_0.905_size_160_120.png	pcp_corr_0.905_size_160_120	0.905	160	120	3					corr_est_stimulus			
99	1686560908821	12/06/2023 09:08:28	1686564508821	1	12/06/2023 11:08:28	135554	9	task-3dzl		30006867	f959a861b33de106de11f88f1e3f5366		complete		6486edc3b7d7cf855a76868d	computer	Desktop or Laptop	Windows 10	Chrome 114.0.0.0	1920x1080	1920x969		corr_spacing	20	gorilla_corr_est	27	corr_est	fixation	uey5yj	1	continue		1986.1770000000251	1986.1770000000251	1986.1770000000251	1986.1770000000251	1986.1770000000251	1986.1770000000251	1	1986.1770000000251	0	0		Fixation Timing	Fixation	1	object-16	corr_est	1	pcp_corr_-0.905_size_160_30.png	pcp_corr_-0.905_size_160_30	-0.905	160	30	-3					corr_est_stimulus			
100	1686560909738	12/06/2023 09:08:29	1686564509738	1	12/06/2023 11:08:29	135554	9	task-3dzl		30006867	f959a861b33de106de11f88f1e3f5366		complete		6486edc3b7d7cf855a76868d	computer	Desktop or Laptop	Windows 10	Chrome 114.0.0.0	1920x1080	1920x969		corr_spacing	20	gorilla_corr_est	27	corr_est	corr_est_stimulus	ws1eyw	2	tooEarly	-3	0	0	0	917.4469999999856	916.7069999999949	917.4469999999856	1	0	0	0	estimated_corr	Click Response	---	4	object-23	corr_est	1	pcp_corr_-0.905_size_160_30.png	pcp_corr_-0.905_size_160_30	-0.905	160	30	-3					corr_est_stimulus			
101	1686560909738	12/06/2023 09:08:29	1686564509738	1	12/06/2023 11:08:29	135554	9	task-3dzl		30006867	f959a861b33de106de11f88f1e3f5366		complete		6486edc3b7d7cf855a76868d	computer	Desktop or Laptop	Windows 10	Chrome 114.0.0.0	1920x1080	1920x969		corr_spacing	20	gorilla_corr_est	27	corr_est	corr_est_stimulus	ws1eyw	2	continue		0	0	0	917.7469999970053	916.7069999999949	917.7469999970053	1	0	0	0		Click To Continue	---	4	object-23	corr_est	1	pcp_corr_-0.905_size_160_30.png	pcp_corr_-0.905_size_160_30	-0.905	160	30	-3					corr_est_stimulus			
102	1686560911723	12/06/2023 09:08:31	1686564511723	1	12/06/2023 11:08:31	135554	9	task-3dzl		30006867	f959a861b33de106de11f88f1e3f5366		complete		6486edc3b7d7cf855a76868d	computer	Desktop or Laptop	Windows 10	Chrome 114.0.0.0	1920x1080	1920x969		corr_spacing	20	gorilla_corr_est	28	corr_est	fixation	uey5yj	1	continue		1986.2159999999858	1986.2159999999858	1986.2159999999858	1986.2159999999858	1986.2159999999858	1986.2159999999858	1	1986.2159999999858	0	0		Fixation Timing	Fixation	1	object-16	corr_est	1	pcp_corr_0.905_size_160_30.png	pcp_corr_0.905_size_160_30	0.905	160	30	3					corr_est_stimulus			
103	1686560912960	12/06/2023 09:08:32	1686564512960	1	12/06/2023 11:08:32	135554	9	task-3dzl		30006867	f959a861b33de106de11f88f1e3f5366		complete		6486edc3b7d7cf855a76868d	computer	Desktop or Laptop	Windows 10	Chrome 114.0.0.0	1920x1080	1920x969		corr_spacing	20	gorilla_corr_est	28	corr_est	corr_est_stimulus	ws1eyw	2	tooEarly	-1	0	0	0	1237.024000000005	1236.1640000000189	1237.024000000005	1	0	0	0	estimated_corr	Click Response	-	6	object-25	corr_est	1	pcp_corr_0.905_size_160_30.png	pcp_corr_0.905_size_160_30	0.905	160	30	3					corr_est_stimulus			
104	1686560912961	12/06/2023 09:08:32	1686564512961	1	12/06/2023 11:08:32	135554	9	task-3dzl		30006867	f959a861b33de106de11f88f1e3f5366		complete		6486edc3b7d7cf855a76868d	computer	Desktop or Laptop	Windows 10	Chrome 114.0.0.0	1920x1080	1920x969		corr_spacing	20	gorilla_corr_est	28	corr_est	corr_est_stimulus	ws1eyw	2	continue		0	0	0	1237.4239999985148	1236.1640000000189	1237.4239999985148	1	0	0	0		Click To Continue	-	6	object-25	corr_est	1	pcp_corr_0.905_size_160_30.png	pcp_corr_0.905_size_160_30	0.905	160	30	3					corr_est_stimulus			
105	1686560914378	12/06/2023 09:08:34	1686564514378	1	12/06/2023 11:08:34	135554	9	task-3dzl		30006867	f959a861b33de106de11f88f1e3f5366		complete		6486edc3b7d7cf855a76868d	computer	Desktop or Laptop	Windows 10	Chrome 114.0.0.0	1920x1080	1920x969		corr_spacing	20	gorilla_corr_est	29	corr_est	fixation	uey5yj	1	continue		1416.5819999999949	1416.5819999999949	1416.5819999999949	1416.5819999999949	1416.5819999999949	1416.5819999999949	1	1416.5819999999949	0	0		Fixation Timing	Fixation	1	object-16	corr_est	1	pcp_corr_-0.905_size_160_480.png	pcp_corr_-0.905_size_160_480	-0.905	160	480	-3					corr_est_stimulus			
106	1686560915678	12/06/2023 09:08:35	1686564515678	1	12/06/2023 11:08:35	135554	9	task-3dzl		30006867	f959a861b33de106de11f88f1e3f5366		complete		6486edc3b7d7cf855a76868d	computer	Desktop or Laptop	Windows 10	Chrome 114.0.0.0	1920x1080	1920x969		corr_spacing	20	gorilla_corr_est	29	corr_est	corr_est_stimulus	ws1eyw	2	tooEarly	-3	0	0	0	1302.4780000029714	1298.7079999999842	1302.4780000029714	1	0	0	0	estimated_corr	Click Response	---	4	object-23	corr_est	1	pcp_corr_-0.905_size_160_480.png	pcp_corr_-0.905_size_160_480	-0.905	160	480	-3					corr_est_stimulus			
107	1686560915679	12/06/2023 09:08:35	1686564515679	1	12/06/2023 11:08:35	135554	9	task-3dzl		30006867	f959a861b33de106de11f88f1e3f5366		complete		6486edc3b7d7cf855a76868d	computer	Desktop or Laptop	Windows 10	Chrome 114.0.0.0	1920x1080	1920x969		corr_spacing	20	gorilla_corr_est	29	corr_est	corr_est_stimulus	ws1eyw	2	continue		0	0	0	1302.8780000014813	1298.7079999999842	1302.8780000014813	1	0	0	0		Click To Continue	---	4	object-23	corr_est	1	pcp_corr_-0.905_size_160_480.png	pcp_corr_-0.905_size_160_480	-0.905	160	480	-3					corr_est_stimulus			
108	1686560917661	12/06/2023 09:08:37	1686564517661	1	12/06/2023 11:08:37	135554	9	task-3dzl		30006867	f959a861b33de106de11f88f1e3f5366		complete		6486edc3b7d7cf855a76868d	computer	Desktop or Laptop	Windows 10	Chrome 114.0.0.0	1920x1080	1920x969		corr_spacing	20	gorilla_corr_est	30	corr_est	fixation	uey5yj	1	continue		1986.1680000000051	1986.1680000000051	1986.1680000000051	1986.1680000000051	1986.1680000000051	1986.1680000000051	1	1986.1680000000051	0	0		Fixation Timing	Fixation	1	object-16	corr_est	1	pcp_corr_0.905_size_160_480.png	pcp_corr_0.905_size_160_480	0.905	160	480	3					corr_est_stimulus			
109	1686560919993	12/06/2023 09:08:39	1686564519993	1	12/06/2023 11:08:39	135554	9	task-3dzl		30006867	f959a861b33de106de11f88f1e3f5366		complete		6486edc3b7d7cf855a76868d	computer	Desktop or Laptop	Windows 10	Chrome 114.0.0.0	1920x1080	1920x969		corr_spacing	20	gorilla_corr_est	30	corr_est	corr_est_stimulus	ws1eyw	2	tooEarly	2	0	0	0	2332.3019999985117	2326.4459999999963	2332.3019999985117	1	0	0	0	estimated_corr	Click Response	++	9	object-28	corr_est	1	pcp_corr_0.905_size_160_480.png	pcp_corr_0.905_size_160_480	0.905	160	480	3					corr_est_stimulus			
110	1686560919993	12/06/2023 09:08:39	1686564519993	1	12/06/2023 11:08:39	135554	9	task-3dzl		30006867	f959a861b33de106de11f88f1e3f5366		complete		6486edc3b7d7cf855a76868d	computer	Desktop or Laptop	Windows 10	Chrome 114.0.0.0	1920x1080	1920x969		corr_spacing	20	gorilla_corr_est	30	corr_est	corr_est_stimulus	ws1eyw	2	continue		0	0	0	2332.602000002982	2326.4459999999963	2332.602000002982	1	0	0	0		Click To Continue	++	9	object-28	corr_est	1	pcp_corr_0.905_size_160_480.png	pcp_corr_0.905_size_160_480	0.905	160	480	3					corr_est_stimulus			
111	1686560923641	12/06/2023 09:08:43	1686564523641	1	12/06/2023 11:08:43	135554	9	task-3dzl		30006867	f959a861b33de106de11f88f1e3f5366		complete		6486edc3b7d7cf855a76868d	computer	Desktop or Laptop	Windows 10	Chrome 114.0.0.0	1920x1080	1920x969		corr_spacing	20	gorilla_corr_est	31	corr_est	fixation	uey5yj	1	continue		3652.831999999995	3652.831999999995	3652.831999999995	3652.831999999995	3652.831999999995	3652.831999999995	1	3652.831999999995	0	0		Fixation Timing	Fixation	1	object-16	corr_est	1	pcp_corr_-0.905_size_40_120.png	pcp_corr_-0.905_size_40_120	-0.905	40	120	-3					corr_est_stimulus			
112	1686560924705	12/06/2023 09:08:44	1686564524705	1	12/06/2023 11:08:44	135554	9	task-3dzl		30006867	f959a861b33de106de11f88f1e3f5366		complete		6486edc3b7d7cf855a76868d	computer	Desktop or Laptop	Windows 10	Chrome 114.0.0.0	1920x1080	1920x969		corr_spacing	20	gorilla_corr_est	31	corr_est	corr_est_stimulus	ws1eyw	2	tooEarly	1	0	0	0	1064.5239999985206	1062.5230000000156	1064.5239999985206	1	0	0	0	estimated_corr	Click Response	+	8	object-27	corr_est	1	pcp_corr_-0.905_size_40_120.png	pcp_corr_-0.905_size_40_120	-0.905	40	120	-3					corr_est_stimulus			
113	1686560924705	12/06/2023 09:08:44	1686564524705	1	12/06/2023 11:08:44	135554	9	task-3dzl		30006867	f959a861b33de106de11f88f1e3f5366		complete		6486edc3b7d7cf855a76868d	computer	Desktop or Laptop	Windows 10	Chrome 114.0.0.0	1920x1080	1920x969		corr_spacing	20	gorilla_corr_est	31	corr_est	corr_est_stimulus	ws1eyw	2	continue		0	0	0	1064.7240000015008	1062.5230000000156	1064.7240000015008	1	0	0	0		Click To Continue	+	8	object-27	corr_est	1	pcp_corr_-0.905_size_40_120.png	pcp_corr_-0.905_size_40_120	-0.905	40	120	-3					corr_est_stimulus			
114	1686560926138	12/06/2023 09:08:46	1686564526138	1	12/06/2023 11:08:46	135554	9	task-3dzl		30006867	f959a861b33de106de11f88f1e3f5366		complete		6486edc3b7d7cf855a76868d	computer	Desktop or Laptop	Windows 10	Chrome 114.0.0.0	1920x1080	1920x969		corr_spacing	20	gorilla_corr_est	32	corr_est	fixation	uey5yj	1	continue		1430.570000000007	1430.570000000007	1430.570000000007	1430.570000000007	1430.570000000007	1430.570000000007	1	1430.570000000007	0	0		Fixation Timing	Fixation	1	object-16	corr_est	1	pcp_corr_0.905_size_40_120.png	pcp_corr_0.905_size_40_120	0.905	40	120	3					corr_est_stimulus			
115	1686560927480	12/06/2023 09:08:47	1686564527480	1	12/06/2023 11:08:47	135554	9	task-3dzl		30006867	f959a861b33de106de11f88f1e3f5366		complete		6486edc3b7d7cf855a76868d	computer	Desktop or Laptop	Windows 10	Chrome 114.0.0.0	1920x1080	1920x969		corr_spacing	20	gorilla_corr_est	32	corr_est	corr_est_stimulus	ws1eyw	2	tooEarly	1	0	0	0	1347.2310000029684	1340.328999999998	1347.2310000029684	1	0	0	0	estimated_corr	Click Response	+	8	object-27	corr_est	1	pcp_corr_0.905_size_40_120.png	pcp_corr_0.905_size_40_120	0.905	40	120	3					corr_est_stimulus			
116	1686560927481	12/06/2023 09:08:47	1686564527481	1	12/06/2023 11:08:47	135554	9	task-3dzl		30006867	f959a861b33de106de11f88f1e3f5366		complete		6486edc3b7d7cf855a76868d	computer	Desktop or Laptop	Windows 10	Chrome 114.0.0.0	1920x1080	1920x969		corr_spacing	20	gorilla_corr_est	32	corr_est	corr_est_stimulus	ws1eyw	2	continue		0	0	0	1347.2749999999942	1340.328999999998	1347.2749999999942	1	0	0	0		Click To Continue	+	8	object-27	corr_est	1	pcp_corr_0.905_size_40_120.png	pcp_corr_0.905_size_40_120	0.905	40	120	3					corr_est_stimulus			
117	1686560931052	12/06/2023 09:08:51	1686564531052	1	12/06/2023 11:08:51	135554	9	task-3dzl		30006867	f959a861b33de106de11f88f1e3f5366		complete		6486edc3b7d7cf855a76868d	computer	Desktop or Laptop	Windows 10	Chrome 114.0.0.0	1920x1080	1920x969		corr_spacing	20	gorilla_corr_est	33	corr_est	fixation	uey5yj	1	continue		3576.484999999986	3576.484999999986	3576.484999999986	3576.484999999986	3576.484999999986	3576.484999999986	1	3576.484999999986	0	0		Fixation Timing	Fixation	1	object-16	corr_est	1	pcp_corr_-0.905_size_40_30.png	pcp_corr_-0.905_size_40_30	-0.905	40	30	-3					corr_est_stimulus			
118	1686560932374	12/06/2023 09:08:52	1686564532374	1	12/06/2023 11:08:52	135554	9	task-3dzl		30006867	f959a861b33de106de11f88f1e3f5366		complete		6486edc3b7d7cf855a76868d	computer	Desktop or Laptop	Windows 10	Chrome 114.0.0.0	1920x1080	1920x969		corr_spacing	20	gorilla_corr_est	33	corr_est	corr_est_stimulus	ws1eyw	2	tooEarly	2	0	0	0	1324.2170000000042	1319.4750000000058	1324.2170000000042	1	0	0	0	estimated_corr	Click Response	++	9	object-28	corr_est	1	pcp_corr_-0.905_size_40_30.png	pcp_corr_-0.905_size_40_30	-0.905	40	30	-3					corr_est_stimulus			
119	1686560932374	12/06/2023 09:08:52	1686564532374	1	12/06/2023 11:08:52	135554	9	task-3dzl		30006867	f959a861b33de106de11f88f1e3f5366		complete		6486edc3b7d7cf855a76868d	computer	Desktop or Laptop	Windows 10	Chrome 114.0.0.0	1920x1080	1920x969		corr_spacing	20	gorilla_corr_est	33	corr_est	corr_est_stimulus	ws1eyw	2	continue		0	0	0	1324.3170000014943	1319.4750000000058	1324.3170000014943	1	0	0	0		Click To Continue	++	9	object-28	corr_est	1	pcp_corr_-0.905_size_40_30.png	pcp_corr_-0.905_size_40_30	-0.905	40	30	-3					corr_est_stimulus			
120	1686560934846	12/06/2023 09:08:54	1686564534846	1	12/06/2023 11:08:54	135554	9	task-3dzl		30006867	f959a861b33de106de11f88f1e3f5366		complete		6486edc3b7d7cf855a76868d	computer	Desktop or Laptop	Windows 10	Chrome 114.0.0.0	1920x1080	1920x969		corr_spacing	20	gorilla_corr_est	34	corr_est	fixation	uey5yj	1	continue		2472.271000000008	2472.271000000008	2472.271000000008	2472.271000000008	2472.271000000008	2472.271000000008	1	2472.271000000008	0	0		Fixation Timing	Fixation	1	object-16	corr_est	1	pcp_corr_0.905_size_40_30.png	pcp_corr_0.905_size_40_30	0.905	40	30	3					corr_est_stimulus			
121	1686560940122	12/06/2023 09:09:00	1686564540122	1	12/06/2023 11:09:00	135554	9	task-3dzl		30006867	f959a861b33de106de11f88f1e3f5366		complete		6486edc3b7d7cf855a76868d	computer	Desktop or Laptop	Windows 10	Chrome 114.0.0.0	1920x1080	1280x849		corr_spacing	20	gorilla_corr_est	34	corr_est	corr_est_stimulus	ws1eyw	2	tooEarly	2	0	0	0	5280.47099999999	5277.902000000002	5280.47099999999	1	0	0	0	estimated_corr	Click Response	++	9	object-28	corr_est	1	pcp_corr_0.905_size_40_30.png	pcp_corr_0.905_size_40_30	0.905	40	30	3					corr_est_stimulus			
122	1686560940122	12/06/2023 09:09:00	1686564540122	1	12/06/2023 11:09:00	135554	9	task-3dzl		30006867	f959a861b33de106de11f88f1e3f5366		complete		6486edc3b7d7cf855a76868d	computer	Desktop or Laptop	Windows 10	Chrome 114.0.0.0	1920x1080	1280x849		corr_spacing	20	gorilla_corr_est	34	corr_est	corr_est_stimulus	ws1eyw	2	continue		0	0	0	5280.77099999701	5277.902000000002	5280.77099999701	1	0	0	0		Click To Continue	++	9	object-28	corr_est	1	pcp_corr_0.905_size_40_30.png	pcp_corr_0.905_size_40_30	0.905	40	30	3					corr_est_stimulus			
123	1686560942106	12/06/2023 09:09:02	1686564542106	1	12/06/2023 11:09:02	135554	9	task-3dzl		30006867	f959a861b33de106de11f88f1e3f5366		complete		6486edc3b7d7cf855a76868d	computer	Desktop or Laptop	Windows 10	Chrome 114.0.0.0	1920x1080	1280x849		corr_spacing	20	gorilla_corr_est	35	corr_est	fixation	uey5yj	1	continue		1986.185999999987	1986.185999999987	1986.185999999987	1986.185999999987	1986.185999999987	1986.185999999987	1	1986.185999999987	0	0		Fixation Timing	Fixation	1	object-16	corr_est	1	pcp_corr_-0.905_size_40_480.png	pcp_corr_-0.905_size_40_480	-0.905	40	480	-3					corr_est_stimulus			
124	1686560943128	12/06/2023 09:09:03	1686564543128	1	12/06/2023 11:09:03	135554	9	task-3dzl		30006867	f959a861b33de106de11f88f1e3f5366		complete		6486edc3b7d7cf855a76868d	computer	Desktop or Laptop	Windows 10	Chrome 114.0.0.0	1920x1080	1280x849		corr_spacing	20	gorilla_corr_est	35	corr_est	corr_est_stimulus	ws1eyw	2	tooEarly	-2	0	0	0	1020.8440000000119	1013.9310000000114	1020.8440000000119	1	0	0	0	estimated_corr	Click Response	--	5	object-24	corr_est	1	pcp_corr_-0.905_size_40_480.png	pcp_corr_-0.905_size_40_480	-0.905	40	480	-3					corr_est_stimulus			
125	1686560943128	12/06/2023 09:09:03	1686564543128	1	12/06/2023 11:09:03	135554	9	task-3dzl		30006867	f959a861b33de106de11f88f1e3f5366		complete		6486edc3b7d7cf855a76868d	computer	Desktop or Laptop	Windows 10	Chrome 114.0.0.0	1920x1080	1280x849		corr_spacing	20	gorilla_corr_est	35	corr_est	corr_est_stimulus	ws1eyw	2	continue		0	0	0	1020.8440000000119	1013.9310000000114	1020.8440000000119	1	0	0	0		Click To Continue	--	5	object-24	corr_est	1	pcp_corr_-0.905_size_40_480.png	pcp_corr_-0.905_size_40_480	-0.905	40	480	-3					corr_est_stimulus			
126	1686560945107	12/06/2023 09:09:05	1686564545107	1	12/06/2023 11:09:05	135554	9	task-3dzl		30006867	f959a861b33de106de11f88f1e3f5366		complete		6486edc3b7d7cf855a76868d	computer	Desktop or Laptop	Windows 10	Chrome 114.0.0.0	1920x1080	1280x849		corr_spacing	20	gorilla_corr_est	36	corr_est	fixation	uey5yj	1	continue		1986.1839999999793	1986.1839999999793	1986.1839999999793	1986.1839999999793	1986.1839999999793	1986.1839999999793	1	1986.1839999999793	0	0		Fixation Timing	Fixation	1	object-16	corr_est	1	pcp_corr_0.905_size_40_480.png	pcp_corr_0.905_size_40_480	0.905	40	480	3					corr_est_stimulus			
127	1686560946946	12/06/2023 09:09:06	1686564546946	1	12/06/2023 11:09:06	135554	9	task-3dzl		30006867	f959a861b33de106de11f88f1e3f5366		complete		6486edc3b7d7cf855a76868d	computer	Desktop or Laptop	Windows 10	Chrome 114.0.0.0	1920x1080	1280x849		corr_spacing	20	gorilla_corr_est	36	corr_est	corr_est_stimulus	ws1eyw	2	tooEarly	0	0	0	0	1839.1679999985208	1833.3250000000116	1839.1679999985208	1	0	0	0	estimated_corr	Click Response	0	7	object-26	corr_est	1	pcp_corr_0.905_size_40_480.png	pcp_corr_0.905_size_40_480	0.905	40	480	3					corr_est_stimulus			
128	1686560946946	12/06/2023 09:09:06	1686564546946	1	12/06/2023 11:09:06	135554	9	task-3dzl		30006867	f959a861b33de106de11f88f1e3f5366		complete		6486edc3b7d7cf855a76868d	computer	Desktop or Laptop	Windows 10	Chrome 114.0.0.0	1920x1080	1280x849		corr_spacing	20	gorilla_corr_est	36	corr_est	corr_est_stimulus	ws1eyw	2	continue		0	0	0	1839.4680000029912	1833.3250000000116	1839.4680000029912	1	0	0	0		Click To Continue	0	7	object-26	corr_est	1	pcp_corr_0.905_size_40_480.png	pcp_corr_0.905_size_40_480	0.905	40	480	3					corr_est_stimulus			
129	1686560948927	12/06/2023 09:09:08	1686564548927	1	12/06/2023 11:09:08	135554	9	task-3dzl		30006867	f959a861b33de106de11f88f1e3f5366		complete		6486edc3b7d7cf855a76868d	computer	Desktop or Laptop	Windows 10	Chrome 114.0.0.0	1920x1080	1280x849		corr_spacing	20	gorilla_corr_est	2	attention_parallel	fixation	3sst63	1	continue		1986.1870000000054	1986.1870000000054	1986.1870000000054	1986.1870000000054	1986.1870000000054	1986.1870000000054	1	1986.1870000000054	0	0		Fixation Timing	Fixation	1	object-77	attention_parallel									parallel_lines_vert_numbered.png	B		attention_parallel_select			
130	1686560950976	12/06/2023 09:09:10	1686564550976	1	12/06/2023 11:09:10	135554	9	task-3dzl		30006867	f959a861b33de106de11f88f1e3f5366		complete		6486edc3b7d7cf855a76868d	computer	Desktop or Laptop	Windows 10	Chrome 114.0.0.0	1920x1080	1280x849		corr_spacing	20	gorilla_corr_est	2	attention_parallel	attention_parallel_select	jqb8p9	2	continue		2049.755999999994	2048.676999999996	2049.755999999994	2049.755999999994	2048.676999999996	2049.755999999994	1	2049.755999999994	0	0		Click To Continue	button_B	3	object-68	attention_parallel									parallel_lines_vert_numbered.png	B		attention_parallel_select			
131	1686560952961	12/06/2023 09:09:12	1686564552961	1	12/06/2023 11:09:12	135554	9	task-3dzl		30006867	f959a861b33de106de11f88f1e3f5366		complete		6486edc3b7d7cf855a76868d	computer	Desktop or Laptop	Windows 10	Chrome 114.0.0.0	1920x1080	1280x849		corr_spacing	20	gorilla_corr_est	37	corr_est	fixation	uey5yj	1	continue		1986.1639999999898	1986.1639999999898	1986.1639999999898	1986.1639999999898	1986.1639999999898	1986.1639999999898	1	1986.1639999999898	0	0		Fixation Timing	Fixation	1	object-16	corr_est	1	pcp_corr_0_size_160_120.png	pcp_corr_0_size_160_120	0	160	120	0					corr_est_stimulus			
132	1686560954323	12/06/2023 09:09:14	1686564554323	1	12/06/2023 11:09:14	135554	9	task-3dzl		30006867	f959a861b33de106de11f88f1e3f5366		complete		6486edc3b7d7cf855a76868d	computer	Desktop or Laptop	Windows 10	Chrome 114.0.0.0	1920x1080	1280x849		corr_spacing	20	gorilla_corr_est	37	corr_est	corr_est_stimulus	ws1eyw	2	tooEarly	2	0	0	0	1361.814999998518	1361.127999999997	1361.814999998518	1	0	0	0	estimated_corr	Click Response	++	9	object-28	corr_est	1	pcp_corr_0_size_160_120.png	pcp_corr_0_size_160_120	0	160	120	0					corr_est_stimulus			
133	1686560954323	12/06/2023 09:09:14	1686564554323	1	12/06/2023 11:09:14	135554	9	task-3dzl		30006867	f959a861b33de106de11f88f1e3f5366		complete		6486edc3b7d7cf855a76868d	computer	Desktop or Laptop	Windows 10	Chrome 114.0.0.0	1920x1080	1280x849		corr_spacing	20	gorilla_corr_est	37	corr_est	corr_est_stimulus	ws1eyw	2	continue		0	0	0	1362.0150000014983	1361.127999999997	1362.0150000014983	1	0	0	0		Click To Continue	++	9	object-28	corr_est	1	pcp_corr_0_size_160_120.png	pcp_corr_0_size_160_120	0	160	120	0					corr_est_stimulus			
134	1686560956627	12/06/2023 09:09:16	1686564556627	1	12/06/2023 11:09:16	135554	9	task-3dzl		30006867	f959a861b33de106de11f88f1e3f5366		complete		6486edc3b7d7cf855a76868d	computer	Desktop or Laptop	Windows 10	Chrome 114.0.0.0	1280x960	1280x849		corr_spacing	20	gorilla_corr_est	38	corr_est	fixation	uey5yj	1	continue		2298.619000000006	2298.619000000006	2298.619000000006	2298.619000000006	2298.619000000006	2298.619000000006	1	2298.619000000006	0	0		Fixation Timing	Fixation	1	object-16	corr_est	1	pcp_corr_0_size_160_30.png	pcp_corr_0_size_160_30	0	160	30	0					corr_est_stimulus			
135	1686560958287	12/06/2023 09:09:18	1686564558287	1	12/06/2023 11:09:18	135554	9	task-3dzl		30006867	f959a861b33de106de11f88f1e3f5366		complete		6486edc3b7d7cf855a76868d	computer	Desktop or Laptop	Windows 10	Chrome 114.0.0.0	1920x1080	1280x849		corr_spacing	20	gorilla_corr_est	38	corr_est	corr_est_stimulus	ws1eyw	2	tooEarly	2	0	0	0	1666.067999998515	1659.814000000013	1666.067999998515	1	0	0	0	estimated_corr	Click Response	++	9	object-28	corr_est	1	pcp_corr_0_size_160_30.png	pcp_corr_0_size_160_30	0	160	30	0					corr_est_stimulus			
136	1686560958287	12/06/2023 09:09:18	1686564558287	1	12/06/2023 11:09:18	135554	9	task-3dzl		30006867	f959a861b33de106de11f88f1e3f5366		complete		6486edc3b7d7cf855a76868d	computer	Desktop or Laptop	Windows 10	Chrome 114.0.0.0	1920x1080	1280x849		corr_spacing	20	gorilla_corr_est	38	corr_est	corr_est_stimulus	ws1eyw	2	continue		0	0	0	1666.3680000029854	1659.814000000013	1666.3680000029854	1	0	0	0		Click To Continue	++	9	object-28	corr_est	1	pcp_corr_0_size_160_30.png	pcp_corr_0_size_160_30	0	160	30	0					corr_est_stimulus			
137	1686560960267	12/06/2023 09:09:20	1686564560267	1	12/06/2023 11:09:20	135554	9	task-3dzl		30006867	f959a861b33de106de11f88f1e3f5366		complete		6486edc3b7d7cf855a76868d	computer	Desktop or Laptop	Windows 10	Chrome 114.0.0.0	1280x960	1280x849		corr_spacing	20	gorilla_corr_est	39	corr_est	fixation	uey5yj	1	continue		1986.122000000003	1986.122000000003	1986.122000000003	1986.122000000003	1986.122000000003	1986.122000000003	1	1986.122000000003	0	0		Fixation Timing	Fixation	1	object-16	corr_est	1	pcp_corr_0_size_160_480.png	pcp_corr_0_size_160_480	0	160	480	0					corr_est_stimulus			
138	1686560980428	12/06/2023 09:09:40	1686564580428	1	12/06/2023 11:09:40	135554	9	task-3dzl		30006867	f959a861b33de106de11f88f1e3f5366		complete		6486edc3b7d7cf855a76868d	computer	Desktop or Laptop	Windows 10	Chrome 114.0.0.0	1920x1080	1280x849		corr_spacing	20	gorilla_corr_est	39	corr_est	corr_est_stimulus	ws1eyw	2	tooEarly	-2	0	0	0	20161.6319999985	20160.266999999993	20161.6319999985	1	0	0	0	estimated_corr	Click Response	--	5	object-24	corr_est	1	pcp_corr_0_size_160_480.png	pcp_corr_0_size_160_480	0	160	480	0					corr_est_stimulus			
139	1686560980431	12/06/2023 09:09:40	1686564580431	1	12/06/2023 11:09:40	135554	9	task-3dzl		30006867	f959a861b33de106de11f88f1e3f5366		complete		6486edc3b7d7cf855a76868d	computer	Desktop or Laptop	Windows 10	Chrome 114.0.0.0	1920x1080	1280x849		corr_spacing	20	gorilla_corr_est	39	corr_est	corr_est_stimulus	ws1eyw	2	continue		0	0	0	20163.93200000297	20160.266999999993	20163.93200000297	1	0	0	0		Click To Continue	--	5	object-24	corr_est	1	pcp_corr_0_size_160_480.png	pcp_corr_0_size_160_480	0	160	480	0					corr_est_stimulus			
140	1686560982414	12/06/2023 09:09:42	1686564582414	1	12/06/2023 11:09:42	135554	9	task-3dzl		30006867	f959a861b33de106de11f88f1e3f5366		complete		6486edc3b7d7cf855a76868d	computer	Desktop or Laptop	Windows 10	Chrome 114.0.0.0	1920x1080	1280x849		corr_spacing	20	gorilla_corr_est	40	corr_est	fixation	uey5yj	1	continue		1986.2330000000075	1986.2330000000075	1986.2330000000075	1986.2330000000075	1986.2330000000075	1986.2330000000075	1	1986.2330000000075	0	0		Fixation Timing	Fixation	1	object-16	corr_est	1	pcp_corr_0_size_40_120.png	pcp_corr_0_size_40_120	0	40	120	0					corr_est_stimulus			
141	1686560983602	12/06/2023 09:09:43	1686564583602	1	12/06/2023 11:09:43	135554	9	task-3dzl		30006867	f959a861b33de106de11f88f1e3f5366		complete		6486edc3b7d7cf855a76868d	computer	Desktop or Laptop	Windows 10	Chrome 114.0.0.0	1920x1080	1280x849		corr_spacing	20	gorilla_corr_est	40	corr_est	corr_est_stimulus	ws1eyw	2	tooEarly	1	0	0	0	1188.9320000029693	1187.508999999991	1188.9320000029693	1	0	0	0	estimated_corr	Click Response	+	8	object-27	corr_est	1	pcp_corr_0_size_40_120.png	pcp_corr_0_size_40_120	0	40	120	0					corr_est_stimulus			
142	1686560983602	12/06/2023 09:09:43	1686564583602	1	12/06/2023 11:09:43	135554	9	task-3dzl		30006867	f959a861b33de106de11f88f1e3f5366		complete		6486edc3b7d7cf855a76868d	computer	Desktop or Laptop	Windows 10	Chrome 114.0.0.0	1920x1080	1280x849		corr_spacing	20	gorilla_corr_est	40	corr_est	corr_est_stimulus	ws1eyw	2	continue		0	0	0	1189.0319999970088	1187.508999999991	1189.0319999970088	1	0	0	0		Click To Continue	+	8	object-27	corr_est	1	pcp_corr_0_size_40_120.png	pcp_corr_0_size_40_120	0	40	120	0					corr_est_stimulus			
143	1686560985587	12/06/2023 09:09:45	1686564585587	1	12/06/2023 11:09:45	135554	9	task-3dzl		30006867	f959a861b33de106de11f88f1e3f5366		complete		6486edc3b7d7cf855a76868d	computer	Desktop or Laptop	Windows 10	Chrome 114.0.0.0	1920x1080	1280x849		corr_spacing	20	gorilla_corr_est	41	corr_est	fixation	uey5yj	1	continue		1986.1639999999898	1986.1639999999898	1986.1639999999898	1986.1639999999898	1986.1639999999898	1986.1639999999898	1	1986.1639999999898	0	0		Fixation Timing	Fixation	1	object-16	corr_est	1	pcp_corr_0_size_40_30.png	pcp_corr_0_size_40_30	0	40	30	0					corr_est_stimulus			
144	1686560986531	12/06/2023 09:09:46	1686564586531	1	12/06/2023 11:09:46	135554	9	task-3dzl		30006867	f959a861b33de106de11f88f1e3f5366		complete		6486edc3b7d7cf855a76868d	computer	Desktop or Laptop	Windows 10	Chrome 114.0.0.0	1920x1080	1280x849		corr_spacing	20	gorilla_corr_est	41	corr_est	corr_est_stimulus	ws1eyw	2	tooEarly	1	0	0	0	943.8589999970281	937.5190000000002	943.8589999970281	1	0	0	0	estimated_corr	Click Response	+	8	object-27	corr_est	1	pcp_corr_0_size_40_30.png	pcp_corr_0_size_40_30	0	40	30	0					corr_est_stimulus			
145	1686560986531	12/06/2023 09:09:46	1686564586531	1	12/06/2023 11:09:46	135554	9	task-3dzl		30006867	f959a861b33de106de11f88f1e3f5366		complete		6486edc3b7d7cf855a76868d	computer	Desktop or Laptop	Windows 10	Chrome 114.0.0.0	1920x1080	1280x849		corr_spacing	20	gorilla_corr_est	41	corr_est	corr_est_stimulus	ws1eyw	2	continue		0	0	0	944.0590000000084	937.5190000000002	944.0590000000084	1	0	0	0		Click To Continue	+	8	object-27	corr_est	1	pcp_corr_0_size_40_30.png	pcp_corr_0_size_40_30	0	40	30	0					corr_est_stimulus			
146	1686560988511	12/06/2023 09:09:48	1686564588511	1	12/06/2023 11:09:48	135554	9	task-3dzl		30006867	f959a861b33de106de11f88f1e3f5366		complete		6486edc3b7d7cf855a76868d	computer	Desktop or Laptop	Windows 10	Chrome 114.0.0.0	1920x1080	1280x849		corr_spacing	20	gorilla_corr_est	42	corr_est	fixation	uey5yj	1	continue		1986.1600000000035	1986.1600000000035	1986.1600000000035	1986.1600000000035	1986.1600000000035	1986.1600000000035	1	1986.1600000000035	0	0		Fixation Timing	Fixation	1	object-16	corr_est	1	pcp_corr_0_size_40_480.png	pcp_corr_0_size_40_480	0	40	480	0					corr_est_stimulus			
147	1686560989196	12/06/2023 09:09:49	1686564589196	1	12/06/2023 11:09:49	135554	9	task-3dzl		30006867	f959a861b33de106de11f88f1e3f5366		complete		6486edc3b7d7cf855a76868d	computer	Desktop or Laptop	Windows 10	Chrome 114.0.0.0	1920x1080	1280x849		corr_spacing	20	gorilla_corr_est	42	corr_est	corr_est_stimulus	ws1eyw	2	tooEarly	1	0	0	0	685.1799999970244	680.5409999999974	685.1799999970244	1	0	0	0	estimated_corr	Click Response	+	8	object-27	corr_est	1	pcp_corr_0_size_40_480.png	pcp_corr_0_size_40_480	0	40	480	0					corr_est_stimulus			
148	1686560989196	12/06/2023 09:09:49	1686564589196	1	12/06/2023 11:09:49	135554	9	task-3dzl		30006867	f959a861b33de106de11f88f1e3f5366		complete		6486edc3b7d7cf855a76868d	computer	Desktop or Laptop	Windows 10	Chrome 114.0.0.0	1920x1080	1280x849		corr_spacing	20	gorilla_corr_est	42	corr_est	corr_est_stimulus	ws1eyw	2	continue		0	0	0	685.5800000029849	680.5409999999974	685.5800000029849	1	0	0	0		Click To Continue	+	8	object-27	corr_est	1	pcp_corr_0_size_40_480.png	pcp_corr_0_size_40_480	0	40	480	0					corr_est_stimulus			
149	1686560989197	12/06/2023 09:09:49	1686564589197	1	12/06/2023 11:09:49	135554	9	task-3dzl		30006867	f959a861b33de106de11f88f1e3f5366		complete		6486edc3b7d7cf855a76868d	computer	Desktop or Laptop	Windows 10	Chrome 114.0.0.0	1920x1080	1280x849		corr_spacing	20	gorilla_corr_est						5	END							0																								
1	1686560812448	12/06/2023 09:06:52	1686564412448	1	12/06/2023 11:06:52	135554	9	task-3dzl		30006905	5fa79c380a393fe8ccfbf2b3a50d0305		complete		6486edcce2704c8f80fe7e50	computer	Desktop or Laptop	Windows 10	Chrome 114.0.0.0	1536x864	1458x762		corr_spacing	20	gorilla_corr_est						5	BEGIN							0																								
2	1686560816789	12/06/2023 09:06:56	1686564416789	1	12/06/2023 11:06:56	135554	9	task-3dzl		30006905	5fa79c380a393fe8ccfbf2b3a50d0305		complete		6486edcce2704c8f80fe7e50	computer	Desktop or Laptop	Windows 10	Chrome 114.0.0.0	1536x864	1458x762		corr_spacing	20	gorilla_corr_est	1	introduction	instructions	9k12za	1	continue		4366.030000000001	4349.369000000001	4366.030000000001	4366.030000000001	4349.369000000001	4366.030000000001	1	4366.030000000001	0	0		Click To Continue	Continue Button	2	object-21	introduction											"This evaluation is examining how linear relationships are perceived in parallel coordinates plots with varying layouts.
The next section contains 5 training questions. Your answers will not be recorded and you may take as much time as needed.
After the training section you will be given the opportunity to pause before the live questions begin.
Thanks for participating!
Please click ‘Continue’ to start."	introduction			
3	1686560831833	12/06/2023 09:07:11	1686564431833	1	12/06/2023 11:07:11	135554	9	task-3dzl		30006905	5fa79c380a393fe8ccfbf2b3a50d0305		complete		6486edcce2704c8f80fe7e50	computer	Desktop or Laptop	Windows 10	Chrome 114.0.0.0	1536x864	1458x762		corr_spacing	20	gorilla_corr_est	1	training	corr_est_examples	dfh83h	1	response	+	15057.082999999999	15048.573	15057.082999999999	15057.082999999999	15048.573	15057.082999999999	1	15057.082999999999	0	0	estimated_corr	Click Response	+	8	object-95	training		example_pcp_corr_-0.905_size_40_120.png	pcp_corr_-0.905_size_40_120	-0.905	160	120	-3			---	"This is a training question.
Try to estimate the type and strength of the relationship between **V1 and V2**.
Click the green button that you think corresponds to the type and strength of the relationship. For example, ‘---’ represents a very strong negative relationship, ‘++’ represents a strong positive relationship, ‘+’ represents a moderate positive relationship."	corr_est_examples	"Look at the pattern formed by the lines between V1 and V2.
Remember:
- Positive relationships have many lines that are close to parallel.
- Negative relationships have many lines crossing to form an ‘X’ pattern.
- No relationship has lines with no pattern."	---	
4	1686560837532	12/06/2023 09:07:17	1686564437532	1	12/06/2023 11:07:17	135554	9	task-3dzl		30006905	5fa79c380a393fe8ccfbf2b3a50d0305		complete		6486edcce2704c8f80fe7e50	computer	Desktop or Laptop	Windows 10	Chrome 114.0.0.0	1536x864	1458x762		corr_spacing	20	gorilla_corr_est	1	training	corr_est_examples	dfh83h	1	continue		20756.583	20747.524999999998	20756.583	20756.583	20747.524999999998	20756.583	1	20756.583	0	0		Click To Continue	Continue Button	15	object-112	training		example_pcp_corr_-0.905_size_40_120.png	pcp_corr_-0.905_size_40_120	-0.905	160	120	-3			---	"This is a training question.
Try to estimate the type and strength of the relationship between **V1 and V2**.
Click the green button that you think corresponds to the type and strength of the relationship. For example, ‘---’ represents a very strong negative relationship, ‘++’ represents a strong positive relationship, ‘+’ represents a moderate positive relationship."	corr_est_examples	"Look at the pattern formed by the lines between V1 and V2.
Remember:
- Positive relationships have many lines that are close to parallel.
- Negative relationships have many lines crossing to form an ‘X’ pattern.
- No relationship has lines with no pattern."	---	
5	1686560842012	12/06/2023 09:07:22	1686564442012	1	12/06/2023 11:07:22	135554	9	task-3dzl		30006905	5fa79c380a393fe8ccfbf2b3a50d0305		complete		6486edcce2704c8f80fe7e50	computer	Desktop or Laptop	Windows 10	Chrome 114.0.0.0	1536x864	1458x762		corr_spacing	20	gorilla_corr_est	2	training	corr_est_examples	dfh83h	1	response	+++	4489.25799998808	4482.406000000003	4489.25799998808	4489.25799998808	4482.406000000003	4489.25799998808	1	4489.25799998808	0	0	estimated_corr	Click Response	+++	10	object-97	training		example_pcp_corr_0_size_160_120.png	pcp_corr_0_size_160_120	0	160	120	0			0	"This is a training question.
Try to estimate the type and strength of the relationship between **V1 and V2**.
Click the green button that you think corresponds to the type and strength of the relationship. For example, ‘---’ represents a very strong negative relationship, ‘++’ represents a strong positive relationship, ‘+’ represents a moderate positive relationship."	corr_est_examples	"Look at the pattern formed by the lines between V1 and V2.
Remember:
- Positive relationships have many lines that are close to parallel.
- Negative relationships have many lines crossing to form an ‘X’ pattern.
- No relationship has lines with no pattern."	0	
